timestamp,gyro_x,gyro_y,gyro_z,mag_x,mag_y,mag_z,accel_x,accel_y,accel_z
16361787,-0.015979,0.0255663,-0.00106526,29.1,-34.05,49.2,-0.711321,1.13883,10.7047
16374789,-0.0181095,0.0117179,-0.00745685,28.2,-35.25,48.6,-0.783171,1.2011,10.8005
16397614,0.00213053,0.0170442,0.0117179,27.75,-34.05,47.7,-0.787961,1.14362,10.6808
16410787,-0.00426106,0.0149137,0.00745685,29.1,-35.1,49.5,-0.764011,1.13883,10.664
16433620,-0.0138484,0.0138484,0.00106526,29.85,-35.85,48.45,-0.63468,1.22984,10.7622
16445790,-0.0127832,0.015979,0.00426106,28.95,-36,48.3,-0.713716,1.1053,10.7311
16468614,-0.00852211,0.0234358,-0.00106526,28.65,-34.5,47.55,-0.701741,1.16518,10.7694
16481796,-0.00958738,0.0245011,-0.00213053,27.3,-34.8,48.45,-0.759221,1.10291,10.6784
16494790,-0.0191748,0.0223706,-0.00319579,28.05,-35.55,48.45,-0.713716,1.21547,10.6856
16517614,-0.00745685,0,-0.0149137,28.65,-34.2,48.3,-0.716111,1.20589,10.688
16529790,-0.0436758,0.015979,0.00426106,29.25,-34.2,47.55,-0.771196,1.11967,10.6209
16552620,-0.0223706,0.0213053,-0.00958738,27.9,-34.5,48,-0.768801,1.12207,10.7646
16564790,-0.0191748,0.0255663,-0.00213053,28.2,-34.2,48.3,-0.675396,1.13404,10.676
16587614,-0.0287621,0.0234358,-0.00213053,27.75,-33.3,47.1,-0.754431,1.08135,10.6401
16599795,-0.0191748,0.0234358,0.00319579,28.8,-33.3,48.15,-0.737666,1.10291,10.7335
16622614,-0.00958738,0.0245011,-0.00319579,27.75,-34.8,48.45,-0.641865,1.27535,10.7335
16634793,-0.0330232,0.0276969,0,28.5,-35.85,48.45,-0.833467,1.0574,10.6496
16657627,-0.0117179,0.015979,-0.00319579,28.05,-35.1,47.7,-0.737666,1.12207,10.7957
16670788,-0.00532632,0.0213053,-0.00319579,28.95,-34.5,48,-0.711321,1.06938,10.6712
16693614,-0.0276969,0.0149137,-0.00213053,28.2,-35.7,48,-0.878972,0.92328,10.4772
16705790,-0.00319579,0.00532632,-0.00213053,28.5,-36.15,47.7,-0.711321,1.11009,10.9011
16728614,0.00745685,0.0149137,0.00319579,28.5,-34.35,48.45,-0.752036,1.12925,10.6425
16741789,-0.0287621,0.00745685,-0.00106526,27,-34.8,48.45,-0.792751,1.09333,10.6856
16764614,0.00106526,0.0255663,0.00426106,29.7,-34.95,49.05,-0.819097,1.2035,10.8436
16776836,-0.00319579,0.015979,0.00106526,29.7,-34.95,48.6,-0.811912,1.07417,10.5802
16799614,-0.00319579,0.00106526,0.00319579,28.8,-35.55,47.1,-0.759221,1.12686,10.7143
16812789,-0.00426106,0.00852211,0.00958738,28.2,-34.5,47.25,-0.756826,1.04543,10.6401
16835664,-0.00852211,0.00532632,0.00639159,30.15,-34.8,47.7,-0.692161,1.01908,10.882
16848790,0.015979,0.0191748,0.00958738,28.65,-34.2,49.05,-0.65384,1.09333,10.6999
16861789,-0.0308927,0.0106526,0.00319579,28.05,-35.55,49.5,-0.783171,1.1556,10.6329
16884614,-0.0106526,0.0223706,0.0223706,27.15,-35.25,48.6,-0.555645,0.90891,10.7742
16897809,0.00319579,0.00639159,-0.00745685,27.6,-34.2,48,-0.598755,1.16518,10.5275
16920614,-0.04048,0.0447411,0.00426106,27.9,-34.2,46.5,-0.447869,1.06459,10.743
16933791,0.0149137,0.0436758,-0.0117179,28.8,-34.35,48.15,-0.759221,1.15081,10.7766
16956647,0.00639159,0.0585895,-0.00532632,28.95,-35.7,48,-0.835862,1.06219,10.4341
16969788,0.00426106,0.0245011,-0.0213053,28.8,-35.1,48.45,-0.883762,1.26577,10.8197
16992614,0.00426106,0.0245011,0.00745685,28.2,-34.95,47.25,-0.979563,1.18673,10.7574
17004790,0.0106526,0.0234358,0.0266316,28.2,-34.95,48.3,-0.958008,0.95681,10.652
17018107,0.00745685,-0.00745685,0.00319579,28.2,-34.95,49.35,-0.694556,1.22984,10.6616
17040614,-0.00319579,0.0340885,0.0340885,30.45,-33.45,48.3,-1.07536,0.777184,10.7191
17052791,0.0255663,-0.015979,-0.02024,29.25,-34.95,48.6,-0.371228,1.66095,10.8628
17075654,-0.0553937,0.0245011,0.0170442,29.25,-34.5,48.3,-1.14482,0.683778,10.5443
17088789,0.0138484,-0.0117179,-0.0138484,28.95,-33.75,48,-0.443079,1.12207,11.052
17111614,0.0394148,0.0213053,0.00213053,28.2,-36,48.3,-1.06818,0.94723,10.6568
17123788,-0.02024,0.00426106,-0.00213053,28.05,-34.8,47.4,-0.261057,1.26337,10.6904
17146619,-0.0149137,0,-0.00639159,28.8,-34.8,47.1,-1.03225,0.801134,10.5562
17159790,-0.00426106,0.0234358,0.00745685,28.95,-34.95,48.6,-0.510139,1.15081,10.9442
17182614,0.0266316,0.00532632,-0.0106526,28.5,-34.05,47.7,-1.10171,1.09333,10.585
17194886,-0.0266316,0.0255663,0.0117179,28.65,-34.5,48,-0.735271,1.2035,10.7574
17217614,0.00639159,0.0255663,0.00639159,28.95,-35.7,49.05,-1.01788,1.13165,10.7478
17229783,0,-0.00319579,-0.0170442,27.9,-35.25,48.3,-0.668211,1.39749,10.7167
17252614,-0.0127832,0.00532632,-0.00426106,27.75,-34.05,48.45,-1.05381,1.04303,10.6688
17265785,0.0127832,0.0170442,0.0127832,29.7,-34.5,48.6,-0.701741,1.28493,10.7909
17288614,-0.0149137,0.0266316,0.0170442,29.1,-34.05,47.7,-1.07536,0.89454,10.6544
17300784,-0.0266316,0.00213053,-0.0138484,28.8,-34.35,47.7,-0.603545,1.22266,10.7862
17323628,-0.00532632,0.0223706,0.00532632,27.3,-35.55,48.75,-0.895737,1.1077,10.7359
17336789,-0.00639159,0.0255663,0.0117179,29.1,-33.6,49.5,-0.819097,1.1556,10.6856
17349784,-0.0255663,0.0117179,-0.00213053,29.85,-33.6,47.4,-0.785566,1.1556,10.7023
17372614,-0.0170442,0.0245011,0.00319579,28.5,-35.55,47.7,-0.795147,1.18913,10.8317
17385795,-0.0245011,0.0245011,0,27.6,-35.25,48.6,-0.823887,1.18673,10.6736
17408614,-0.0245011,0.0117179,0.00639159,28.65,-35.7,48.6,-0.64905,1.26337,10.7718
17420787,-0.0415453,0.0223706,0.00532632,28.5,-35.85,48.45,-0.718506,1.12925,10.7502
17443628,-0.0308927,0.0308927,0.00532632,29.7,-35.7,48.3,-0.895737,1.1077,10.7383
17456789,-0.0383495,0.0245011,-0.00319579,28.95,-34.5,48.3,-0.979563,0.975971,10.5802
17479614,-0.00852211,0.0266316,0.00532632,28.65,-34.2,48,-0.783171,1.17476,10.7359
17491787,-0.0149137,0.0223706,0.00106526,29.25,-35.25,48.3,-0.840652,1.04303,10.6401
17514615,-0.0170442,0.0170442,0.00319579,28.95,-34.95,47.25,-0.850232,1.13165,10.7215
17526789,-0.0106526,0.02024,0.00639159,28.65,-34.95,46.95,-0.821492,1.21068,10.676
17549614,-0.00639159,0.00532632,0.00319579,28.65,-34.5,48,-0.922083,1.08854,10.6544
17561793,-0.0191748,0.0149137,0.0106526,28.8,-34.8,48.75,-0.816702,1.12207,10.7622
17584614,0.00106526,0.0127832,0.0117179,29.7,-34.2,48.3,-0.912502,1.1556,10.6688
17596789,-0.0191748,0.00958738,0.0170442,28.5,-34.8,47.7,-0.924478,1.07417,10.6425
17619631,0.00319579,0.00213053,0,30.15,-33.6,49.2,-0.859812,1.08614,10.7718
17632787,-0.00426106,0.00958738,0.00852211,28.65,-35.25,48,-0.847837,1.14123,10.6305
17655614,-0.00852211,0.00745685,0.0181095,28.65,-35.25,48.6,-0.924478,1.12446,10.7838
17668787,0.00745685,0.00852211,0.0138484,29.25,-33.45,48,-0.799937,1.13883,10.7383
17681788,-0.0181095,0.00852211,0.00958738,27.9,-34.2,49.05,-0.852627,1.13404,10.6305
17704614,0.00213053,0.00106526,0.00106526,29.55,-35.85,48.15,-0.759221,1.12207,10.8293
17716788,-0.00852211,0.0149137,0.0138484,30.15,-34.8,47.4,-0.797542,1.07417,10.6448
17739631,-0.015979,-0.00745685,-0.00213053,29.25,-33.75,48,-0.831072,1.10291,10.7047
17752788,-0.00532632,0.00532632,0.00639159,28.65,-34.95,47.55,-0.725691,1.14841,10.7191
17775614,-0.00319579,0.0127832,0.0191748,28.95,-35.25,48.3,-0.900527,1.13165,10.7143
17787785,0,0.00532632,0.0106526,28.05,-33.6,47.7,-0.855022,1.19631,10.7454
17810620,0.00213053,0.0138484,0.00958738,28.95,-35.25,49.05,-0.866997,1.14841,10.7191
17823789,-0.00426106,0.00532632,0.00319579,29.1,-35.1,48.45,-0.898132,1.24661,10.6975
17846614,-0.00852211,0.00958738,0.0138484,27.6,-33.75,49.35,-0.866997,1.10051,10.6832
17858793,0.00639159,0.00426106,0.0138484,27.9,-33.75,49.05,-0.857417,1.11249,10.7502
17881614,0,0.00639159,0.00745685,28.8,-34.05,49.5,-0.876577,1.12446,10.6664
17893789,-0.00639159,-0.00106526,0.00639159,29.1,-34.8,48.15,-0.869392,1.21308,10.755
17916647,0.00426106,0.0106526,0.0117179,29.7,-34.95,47.55,-0.852627,1.09812,10.7263
17929787,0.00319579,0.00852211,0.0106526,28.8,-34.8,48.45,-0.809517,1.11009,10.6904
17942787,0.0149137,0,0.00745685,29.7,-33.75,46.2,-0.831072,1.16997,10.676
17965614,-0.00426106,0.00319579,0.0127832,28.95,-34.95,48.3,-0.855022,1.06938,10.7263
17977815,0.00426106,0.00532632,0.0117179,27.9,-34.95,48.3,-0.747246,1.17476,10.8101
18000614,0.00106526,0.00319579,0.00319579,29.7,-34.2,49.05,-0.723296,1.23463,10.6664
18012788,-0.0117179,0.00426106,0.00319579,28.05,-33.6,48.45,-0.696951,1.2514,10.7143
18035672,0.00213053,0.00852211,0.00745685,28.2,-34.2,48,-0.850232,1.22026,10.8053
18048789,-0.00745685,0.00745685,0.00958738,27.15,-36,47.55,-0.840652,1.14841,10.6568
18071614,-0.00958738,0.00319579,0.00852211,27.75,-34.8,46.65,-0.864602,1.13644,10.743
18083785,0.00319579,0.00745685,0.0106526,28.65,-34.5,48,-0.792751,1.19871,10.7095
18106625,-0.00745685,0.00958738,0.00958738,28.5,-35.1,47.7,-0.778381,1.17715,10.743
18119789,-0.015979,-0.00106526,0.0106526,29.85,-34.35,48.75,-0.924478,1.10291,10.7215
18142614,0.00639159,0.00745685,0.00532632,28.2,-34.95,46.5,-0.799937,1.09093,10.7359
18154901,-0.00426106,0.00532632,0.00852211,29.7,-34.5,49.05,-0.730481,1.13165,10.7215
18177615,-0.015979,0.015979,0.015979,28.8,-34.05,48.15,-1.01549,1.07896,10.6616
18189784,0,0.00213053,0.00958738,29.55,-35.55,47.7,-0.888552,1.12207,10.7478
18212617,0.0106526,-0.00213053,0.0106526,29.1,-33.6,48.75,-0.866997,1.02866,10.6592
18225785,-0.00319579,-0.00532632,0.00745685,28.8,-36.15,48.45,-0.684976,1.17955,10.688
18248614,-0.00852211,0.00319579,0.00213053,27.9,-35.7,47.55,-0.785566,1.18913,10.7742
18260786,-0.00213053,0.00745685,0.00958738,28.95,-33.75,48.6,-0.778381,1.16278,10.7239
18283631,-0.00852211,-0.00532632,0.00852211,29.1,-34.35,48.15,-0.797542,1.16039,10.676
18296787,-0.00639159,-0.00106526,0.0106526,28.5,-34.35,48.15,-0.823887,1.12207,10.7311
18309789,0.00532632,-0.00532632,0.00958738,28.65,-35.25,49.05,-0.790356,1.16757,10.688
18332616,-0.0138484,-0.00426106,0.00532632,27.75,-33.6,48.15,-0.773591,1.18434,10.7023
18345787,-0.00745685,0.00319579,0.00958738,28.05,-34.05,47.4,-0.811912,1.14123,10.8125
18368614,-0.00639159,0.00213053,0.00958738,29.7,-34.95,48,-0.718506,1.07417,10.6856
18380789,-0.0117179,0.0138484,0.0127832,28.5,-34.35,49.2,-0.732876,1.10291,10.664
18403631,-0.00532632,0.0106526,0.00213053,28.95,-34.95,47.55,-0.833467,1.10291,10.7215
18416787,-0.00319579,0.0117179,0.00958738,29.1,-34.05,48.75,-0.946033,1.17236,10.676
18439614,-0.00745685,0.00852211,0.00852211,28.65,-35.7,48.3,-0.833467,1.22745,10.6784
18451787,-0.0138484,0.00745685,0.00958738,28.8,-34.05,47.7,-0.823887,1.21547,10.7143
18474620,-0.00639159,0.00426106,0.0117179,28.5,-35.1,47.1,-0.720901,1.19631,10.7502
18487788,-0.0127832,0.00639159,0.00532632,28.65,-34.5,47.55,-0.701741,1.19631,10.6233
18510614,-0.00958738,0.00532632,0.00745685,29.1,-34.8,47.7,-0.826282,1.20829,10.7263
18522795,0.00319579,0.0106526,0.0106526,29.25,-33.75,47.55,-0.768801,1.12686,10.7047
18545614,-0.00745685,0.00532632,0.0138484,29.7,-36,48.3,-0.783171,1.19392,10.6329
18557788,-0.00639159,-0.00106526,0.00213053,28.95,-34.5,48.3,-0.742456,1.16518,10.7359
18571085,-0.00532632,0.0106526,0.00958738,29.55,-34.35,48.15,-0.792751,1.17236,10.7335
18593621,-0.00426106,0.00639159,0.0127832,27.9,-34.2,48.3,-0.768801,1.18434,10.7047
18606788,-0.00639159,0.0138484,0.0138484,27.9,-34.2,48,-0.766406,1.22026,10.7191
18629614,-0.00532632,0.00852211,0.00639159,28.95,-35.7,49.05,-0.737666,1.1053,10.767
18641793,-0.00958738,0.0127832,0.0106526,29.55,-34.05,48.45,-0.725691,1.14602,10.6832
18664614,-0.00106526,0,0,29.25,-36.45,49.05,-0.778381,1.1532,10.7335
18676789,-0.00852211,0.0117179,0.00958738,28.2,-33.75,49.65,-0.749641,1.15799,10.7933
18699631,0.00319579,0.00532632,0.00532632,27.9,-35.25,48.6,-0.852627,1.16039,10.7263
18712787,-0.02024,0.00958738,0.00852211,28.5,-34.05,48.45,-0.675396,1.21308,10.7071
18735614,-0.00106526,0.00639159,0.015979,29.25,-33.45,48.3,-0.744851,1.1053,10.6808
18747787,-0.00852211,0.00745685,0.00639159,28.05,-34.8,48.15,-0.64426,1.17476,10.7263
18770620,-0.0106526,0.0117179,0.00852211,28.65,-34.95,49.65,-0.780776,1.11728,10.6736
18783788,-0.00213053,0.0117179,0.00852211,29.1,-34.05,47.7,-0.754431,1.14602,10.6999
18806614,-0.00426106,0.00532632,0.00319579,27.3,-34.35,48.75,-0.785566,1.18673,10.7574
18818795,-0.0106526,0.00532632,0.00319579,27.3,-34.35,47.7,-0.792751,1.1532,10.7191
18841614,-0.00745685,0.015979,0.00639159,29.25,-35.7,49.35,-0.732876,1.16039,10.6927
18853788,-0.00639159,0.00958738,0.00745685,28.95,-34.95,48,-0.768801,1.18913,10.688
18876631,-0.00958738,0.0127832,0.00639159,28.65,-34.5,48.3,-0.804727,1.19392,10.7095
18889788,-0.0106526,0.0138484,0.00532632,28.8,-34.35,48.45,-0.922083,1.07417,10.7119
18902787,-0.00426106,0.00745685,0.00745685,29.25,-33.75,47.25,-0.919688,1.19631,10.7359
18925614,-0.00319579,0.0138484,0.00958738,28.5,-33.3,47.7,-0.775986,1.2011,10.7335
18937793,-0.00958738,0.0106526,0.00532632,29.25,-34.95,47.25,-0.773591,1.21068,10.7239
18960614,-0.00639159,0.00532632,0.00532632,29.1,-34.8,48.75,-0.828677,1.18673,10.7646
18972789,-0.00213053,0.0106526,0.00745685,28.5,-35.55,49.2,-0.795147,1.16757,10.7454
18995655,-0.00319579,0.00426106,0.00958738,28.2,-34.5,48.3,-0.778381,1.16997,10.6784
19008787,-0.0106526,0.00319579,0.00852211,29.1,-35.1,49.2,-0.804727,1.17715,10.7502
19031614,-0.00639159,0.00958738,0.00958738,28.65,-36,48.3,-0.792751,1.2035,10.7646
19044787,0,0.00213053,0.00958738,28.5,-34.8,48.45,-0.823887,1.12207,10.7071
19067620,-0.00319579,0.00532632,0.0106526,28.65,-33.45,48.6,-0.773591,1.16278,10.7215
19080788,0.00106526,0.00852211,0.015979,28.05,-35.1,48.45,-0.713716,1.24421,10.7454
19103614,-0.00213053,0.00639159,0.0170442,29.55,-34.05,48.45,-0.728086,1.13165,10.688
19115817,-0.00639159,-0.00106526,0.0106526,28.65,-35.25,48,-0.847837,1.22266,10.7239
19138614,-0.00319579,-0.00213053,0,28.95,-34.95,48,-0.754431,1.09812,10.7383
19150788,-0.00958738,0.00106526,0.0117179,27,-35.1,48.45,-0.764011,1.09333,10.7263
19173640,-0.00852211,0.00106526,0.00958738,28.5,-34.8,48.45,-0.661025,1.17715,10.6712
19186794,0,0.0138484,0.0138484,28.5,-33.6,47.1,-0.835862,1.16278,10.6999
19199784,-0.00426106,0,0.00532632,28.65,-34.95,47.55,-0.847837,1.08135,10.6472
19222614,-0.0117179,-0.00213053,-0.00319579,27.6,-33.75,48,-0.778381,1.21068,10.6856
19234894,-0.00106526,0,0.00426106,29.25,-34.5,48,-0.720901,1.19631,10.7454
19257614,-0.00106526,0.00532632,0.0117179,27.6,-35.25,47.55,-0.694556,1.19631,10.7167
19269786,-0.00426106,0.00106526,0.00426106,29.1,-34.05,49.2,-0.826282,1.03824,10.6927
19292615,-0.0117179,0.00319579,0.00532632,28.5,-34.35,48.75,-0.675396,1.17476,10.7766
19305790,-0.00426106,0.00532632,0.0127832,29.1,-35.85,48.75,-0.761616,1.15081,10.6688
19328614,-0.00639159,-0.00639159,0.00106526,29.85,-35.1,48.45,-0.64905,1.22026,10.7023
19340789,-0.015979,0.0127832,0.0117179,27.6,-34.5,49.65,-0.711321,1.16997,10.6999
19363631,-0.00426106,0,0.00958738,29.1,-35.85,48.45,-0.759221,1.2011,10.7119
19376787,-0.0138484,0,0.00745685,28.5,-36.15,48.15,-0.706531,1.13404,10.7047
19399614,0,0.0117179,0.0138484,28.8,-34.8,48.75,-0.852627,1.22026,10.7406
19411793,-0.00745685,0.0106526,0.0117179,28.05,-34.05,49.2,-0.799937,1.1556,10.6017
19434614,-0.0149137,0,0.00958738,28.8,-33.3,48.15,-0.735271,1.13404,10.7095
19446788,-0.00852211,0.00532632,0.00426106,29.55,-34.8,47.4,-0.761616,1.18673,10.7191
19469614,-0.0117179,0.015979,0.0106526,28.2,-34.2,48.3,-0.766406,1.12207,10.6664
19481795,-0.0117179,0.00426106,0.0149137,30.45,-34.5,49.05,-0.759221,1.16278,10.7215
19504614,-0.0127832,0.00319579,0.00958738,28.2,-33.75,48,-0.802332,1.13404,10.7263
19516788,-0.0170442,-0.00106526,0.00213053,28.95,-34.2,48,-0.711321,1.1556,10.7502
19539631,-0.00958738,0.0117179,0.00639159,29.85,-35.1,48.15,-0.780776,1.11249,10.7311
19552788,-0.00319579,0.00426106,0.00639159,28.65,-34.95,49.05,-0.756826,1.16278,10.6472
19565788,-0.00532632,0.00852211,0.00426106,29.55,-34.05,48.75,-0.684976,1.25858,10.6999
19588614,0.00426106,0.0117179,0.0149137,27,-34.8,48.15,-0.828677,1.20589,10.7335
19600786,-0.00639159,0.00639159,0.00958738,27.6,-34.5,49.05,-0.749641,1.11967,10.743
19623616,-0.015979,0.00639159,0.00852211,28.05,-34.35,47.7,-0.783171,1.16997,10.6472
19635761,-0.0106526,0.00852211,0.0117179,28.5,-34.35,49.2,-0.756826,1.16997,10.767
19658680,0,0.00532632,0.0117179,28.65,-34.95,47.25,-0.749641,1.11009,10.664
19671782,-0.00852211,0.00213053,0.00639159,28.05,-34.8,48.45,-0.790356,1.2011,10.664
19694617,-0.00852211,-0.00958738,-0.00213053,28.95,-33.75,48,-0.785566,1.16757,10.7502
19706764,-0.00852211,0.00426106,0.015979,28.2,-33.45,48,-0.816702,1.09333,10.7239
19729613,0.00213053,-0.00213053,0.00745685,27.3,-35.85,47.1,-0.718506,1.21308,10.7335
19742780,-0.0106526,0,0.00958738,29.25,-36.45,47.55,-0.720901,1.09572,10.6592
19765615,-0.015979,0.00106526,0.00532632,28.8,-34.8,47.1,-0.680186,1.16039,10.7742
19777785,-0.00106526,0.00319579,0.00852211,28.2,-33.75,47.55,-0.752036,1.12686,10.7359
19800621,-0.00745685,0.00852211,0.0127832,28.05,-34.35,48.45,-0.744851,1.15799,10.7311
19812761,-0.00106526,0.00639159,0.0149137,28.05,-34.35,47.4,-0.838257,1.22266,10.6856
19835726,-0.00852211,0.00319579,0.00639159,27.6,-34.2,48,-0.835862,1.16039,10.652
19848779,0,-0.00532632,-0.00106526,28.2,-35.25,47.55,-0.66342,1.26816,10.7239
19871617,-0.00213053,0.00958738,0.0191748,28.2,-35.7,47.55,-0.651445,1.18434,10.676
19883764,-0.00745685,-0.00106526,0.00106526,28.8,-34.35,47.7,-0.768801,1.18434,10.6808
19906698,-0.00639159,0.00426106,0.00745685,29.25,-34.95,49.65,-0.785566,1.18194,10.7957
19919789,0.00213053,0.00213053,0.00426106,28.8,-33.6,48.45,-0.814307,1.24661,10.7383
19932785,-0.0117179,0.0149137,0.0181095,27.3,-34.35,48.15,-0.931663,1.17955,10.7335
19955667,-0.00319579,-0.00213053,-0.00319579,29.1,-34.8,48.45,-0.804727,1.17236,10.755
19968788,-0.00745685,0.00958738,0.00958738,28.8,-34.35,47.4,-0.668211,1.18434,10.7335
19991614,-0.00106526,0.0138484,0.015979,29.1,-34.05,47.7,-0.656235,1.16518,10.7263
20003787,0,0.00745685,0.00639159,29.55,-35.85,48.75,-0.718506,1.18673,10.7047
20026614,-0.0127832,0.00532632,0.00639159,27,-35.1,48.15,-0.668211,1.24421,10.6975
20038785,-0.00639159,0.0127832,0.00532632,27.15,-34.5,48.6,-0.787961,1.19392,10.7574
20061614,-0.00745685,0.0117179,0.00639159,28.95,-34.5,48.6,-0.673001,1.21068,10.7383
20073808,-0.0127832,0.0117179,0.00958738,28.8,-33.6,48.45,-0.838257,1.09333,10.676
20096614,-0.00319579,0.0117179,0.0106526,27.9,-34.5,48.3,-0.735271,1.22026,10.7742
20109783,0.00426106,-0.00319579,-0.00213053,28.95,-34.5,49.35,-0.55804,1.10291,10.676
20132615,-0.0149137,0.00958738,0.00745685,28.95,-35.7,48.3,-0.617915,1.14362,10.7095
20145786,-0.00426106,0,0.00852211,28.2,-34.2,49.05,-0.728086,1.17236,10.755
20158788,-0.0106526,0.00639159,0.00958738,28.05,-34.8,48.15,-0.670605,1.28493,10.688
20181614,-0.0127832,0.00852211,0.00639159,28.8,-35.1,49.5,-0.771196,1.21308,10.7263
20193799,-0.0106526,0.00639159,0.00745685,27.75,-34.8,48.15,-0.687371,1.16039,10.7646
20216615,-0.0138484,0.00213053,0.00639159,28.65,-33.75,48.3,-0.677791,1.17715,10.7119
20228783,-0.00958738,0.00213053,0.00745685,28.2,-35.7,48.6,-0.754431,1.09333,10.6975
20251614,-0.00639159,0.00532632,0.00532632,29.1,-33.6,49.2,-0.723296,1.16278,10.7143
20263791,-0.0170442,0.00852211,0.00745685,28.05,-33.3,48.45,-0.771196,1.14841,10.6856
20286614,-0.00426106,0.00852211,0.00745685,27.3,-34.35,48.45,-0.689766,1.13165,10.7335
20298786,-0.00852211,0,0.0106526,28.65,-34.5,49.05,-0.747246,1.14362,10.676
20321631,-0.0117179,0.00213053,0.00745685,28.5,-34.05,49.8,-0.771196,1.14841,10.7239
20334787,-0.00319579,0.0106526,0.00426106,27.6,-34.95,49.05,-0.651445,1.22266,10.7502
20357614,-0.00106526,0,0.00958738,29.85,-35.1,48.75,-0.797542,1.19631,10.7167
20369785,-0.00852211,-0.00532632,0.00852211,29.1,-35.1,48.45,-0.668211,1.10051,10.7071
20392620,-0.0266316,0.00213053,0.00745685,27.9,-33.45,47.55,-0.723296,1.18194,10.6664
20405789,-0.0255663,0.00852211,0.0127832,28.5,-34.35,47.7,-0.749641,1.17715,10.7311
20428614,-0.0117179,-0.00106526,0.00852211,28.65,-34.5,48.6,-0.718506,1.249,10.743
20440793,-0.0149137,-0.00426106,0.00319579,28.95,-34.5,48.6,-0.816702,1.08375,10.7047
20463614,-0.0234358,0.00213053,0.00958738,28.5,-33.6,48.75,-0.771196,1.18673,10.7454
20475789,-0.0170442,-0.00532632,0.00426106,28.2,-33.75,48.6,-0.816702,1.14123,10.6472
20498631,-0.0234358,-0.00532632,0.00532632,30.45,-34.5,48,-0.637075,1.18673,10.6904
20511787,-0.0149137,0.00532632,0.0181095,29.1,-34.35,48.45,-0.720901,1.17955,10.7718
20534614,-0.00958738,0,0.00639159,28.5,-32.85,49.2,-0.711321,1.15081,10.7071
20546787,-0.0223706,0.00106526,0.0106526,27.9,-34.5,48.3,-0.680186,1.19871,10.755
20569620,-0.00958738,-0.00106526,0.0117179,29.85,-34.8,49.5,-0.740061,1.13404,10.6832
20582788,-0.0106526,-0.00106526,0.0106526,27.3,-34.05,48.45,-0.807122,1.15081,10.7071
20595788,-0.0149137,0.00532632,0.0117179,28.2,-34.95,48.6,-0.689766,1.16278,10.7359
20618631,-0.0181095,-0.00106526,-0.00319579,29.55,-35.1,47.7,-0.486189,1.09333,10.6999
20631788,-0.0106526,0.0117179,0.00639159,27.9,-34.5,47.25,-0.62031,1.10051,10.8005
20654614,-0.0149137,0.00852211,0.0106526,28.05,-34.8,49.2,-0.821492,1.06698,10.6425
20667785,-0.00532632,0.00319579,-0.00213053,28.2,-34.5,48,-0.56762,1.2993,10.8005
20690620,-0.0127832,0.015979,0.00745685,26.7,-35.85,47.7,-0.692161,1.04064,10.688
20703789,0.00106526,-0.00319579,-0.00532632,28.5,-34.8,48.15,-0.462239,1.15081,10.7574
20726614,-0.02024,0.0287621,0.0223706,28.2,-33.75,48.6,-0.708926,1.04303,10.6377
20738793,-0.00213053,0.00426106,-0.00639159,28.2,-34.2,47.55,-0.775986,1.12207,10.6999
20761614,-0.0127832,0.0138484,0.00319579,27.9,-34.5,49.35,-0.632285,1.18194,10.6904
20774789,-0.00319579,0.0138484,-0.00106526,28.2,-33.45,47.55,-0.680186,1.11728,10.8197
20787785,-0.0149137,0.0245011,0.0149137,28.2,-35.25,48,-0.732876,1.04543,10.6808
20810620,-0.00532632,0.0106526,0,29.1,-34.8,48.45,-0.768801,1.10291,10.688
20823788,-0.00532632,0.02024,0.00319579,29.1,-35.55,47.7,-0.706531,1.14602,10.7454
20846614,0.00106526,0.0149137,0.00532632,29.1,-33.6,48.15,-0.689766,1.09093,10.6832
20858787,-0.00958738,0.0138484,0.00426106,28.95,-34.2,49.05,-0.761616,1.12446,10.7383
20881614,0.0138484,0.0223706,0.0138484,28.8,-34.35,48.45,-0.922083,1.21547,10.7287
20893785,0.0117179,0.0245011,0.0127832,28.95,-34.95,47.25,-0.823887,1.11967,10.6975
20916671,0.00426106,0.0170442,0.00745685,30,-34.95,48,-0.752036,1.24661,10.779
20929790,-0.00106526,0.0170442,0.0117179,28.5,-35.1,47.7,-0.768801,1.16518,10.7311
20952614,0.00213053,0.00532632,0.00213053,29.7,-33,46.95,-0.63947,1.13165,10.6472
20964788,0.00319579,0.0127832,0.0170442,28.65,-34.95,47.25,-0.665815,1.12446,10.7071
20987625,0.00213053,0.0266316,0.0127832,27.75,-34.8,48.45,-0.740061,1.22505,10.8077
21000793,0.00106526,0.0223706,0.0106526,28.65,-34.5,46.95,-0.708926,1.31846,10.6544
21013780,-0.00426106,0.0234358,0.0117179,28.2,-35.7,48.6,-0.924478,1.25619,10.7885
21036651,-0.00213053,0.0170442,0.00639159,29.25,-34.2,47.25,-0.831072,1.06938,10.7215
21049789,-0.00958738,0.0127832,-0.00319579,27.9,-34.95,47.55,-0.61073,1.1556,10.6616
21072614,-0.00319579,0.0191748,0.00532632,28.65,-34.5,47.55,-0.706531,1.16278,10.6688
21084788,-0.00852211,0.0127832,0.00745685,28.65,-34.2,48.3,-0.704136,1.12925,10.6832
21107624,-0.00213053,0.00958738,0.00532632,28.8,-34.35,48.15,-0.720901,1.18913,10.755
21120793,-0.00426106,0.0106526,0.00639159,28.8,-34.35,47.7,-0.706531,1.16518,10.779
21143614,-0.00852211,0.0127832,0.0106526,28.95,-33.75,49.35,-0.771196,1.17236,10.7335
21155835,-0.00106526,0.00213053,0.0106526,28.5,-34.05,48.15,-0.740061,1.21308,10.7383
21178615,-0.00213053,0.00532632,0.00958738,27.75,-35.55,48.15,-0.673001,1.11009,10.6832
21190782,-0.00426106,0.00958738,0.00745685,29.55,-36.15,48.45,-0.740061,1.09812,10.688
21213614,-0.00213053,0.00958738,0.00958738,28.5,-35.1,49.5,-0.673001,1.24182,10.8053
21226786,-0.00319579,0.0117179,0.00745685,28.65,-35.7,48,-0.922083,1.13165,10.6616
21249614,-0.00639159,0.0149137,0.0149137,28.8,-35.55,48.75,-0.907712,1.27295,10.7766
21261786,-0.00319579,0.00745685,0.00958738,29.55,-34.05,48.75,-0.855022,1.14602,10.6808
21284629,-0.00745685,0.00532632,0.00958738,28.5,-33.6,48.45,-0.775986,1.12207,10.6736
21297788,-0.00852211,0.00426106,0.00426106,28.5,-34.8,49.2,-0.831072,1.11488,10.6999
21310778,-0.00958738,0.0117179,0.00958738,28.5,-33.3,47.7,-0.689766,1.22505,10.7814
21333614,0.00319579,0.0117179,0.0106526,28.65,-34.5,49.05,-0.692161,1.20589,10.7406
21346787,-0.00532632,0.00745685,0.00958738,27.9,-34.5,49.05,-0.711321,1.17955,10.6832
21369614,-0.00532632,0.00213053,0.00639159,27.6,-35.25,48.6,-0.756826,1.13644,10.7598
21381784,0,0.0106526,0.00958738,29.1,-34.8,48.75,-0.661025,1.20589,10.7909
21404629,-0.00319579,0.00852211,0.00745685,28.5,-34.8,47.4,-0.752036,1.16518,10.6904
21417789,-0.00319579,0.0106526,0.0106526,28.95,-34.2,49.35,-0.732876,1.19392,10.7598
21440614,0,0.0117179,0.00745685,27.15,-35.7,48.6,-0.706531,1.16997,10.6784
21452787,-0.00958738,0.00639159,0.00532632,28.5,-35.55,47.4,-0.723296,1.11728,10.6975
21475621,-0.00745685,0.00745685,0.00958738,29.85,-35.1,48.45,-0.692161,1.09572,10.7598
21488787,-0.00319579,0.015979,0.00958738,30,-33.75,49.05,-0.713716,1.15799,10.7071
21511614,-0.0117179,0.00745685,0.00532632,28.8,-33.6,48.45,-0.725691,1.18434,10.6999
21524789,-0.00958738,0.00852211,0.00958738,28.5,-33.6,48.45,-0.747246,1.19392,10.7957
21537788,0.00213053,0.0149137,0.00958738,28.2,-34.2,48.3,-0.730481,1.2035,10.688
21560614,-0.00745685,0.00958738,0.00639159,28.65,-35.7,46.5,-0.699346,1.14602,10.652
21572785,-0.00745685,0.0106526,0.00213053,28.8,-34.05,48.45,-0.744851,1.16039,10.6664
21595621,-0.00106526,0.0106526,0.00852211,27.9,-34.5,48.3,-0.692161,1.11009,10.7047
21608785,0.00213053,0.0127832,0.0127832,28.2,-34.95,49.35,-0.756826,1.14123,10.6664
21631614,-0.00213053,0.00213053,0.00958738,27.75,-34.35,48.75,-0.752036,1.12446,10.688
21644787,0.0138484,0.00639159,0.0127832,28.05,-34.35,47.7,-0.675396,1.18913,10.7502
21667614,-0.0213053,0.0117179,0.0170442,29.7,-34.5,48,-0.795147,1.07177,10.7263
21679782,0.0127832,-0.0106526,0.00213053,27.9,-35.7,49.05,-0.483794,1.18434,10.7838
21702615,0,0.0106526,0.0127832,28.65,-34.5,49.35,-0.802332,1.05261,10.7646
21715789,0.00639159,-0.00106526,-0.00426106,28.2,-34.95,48.3,-0.507744,1.21787,10.7694
21738614,-0.00426106,0.0127832,0.02024,28.05,-33.6,49.5,-0.570015,1.19392,10.6975
21750786,-0.00852211,0.0127832,0.015979,28.2,-34.5,48,-0.883762,1.17715,10.7287
21773621,-0.00106526,-0.00426106,0.00106526,27.9,-33.75,46.5,-0.689766,1.26098,10.7215
21786790,-0.00426106,0.00852211,0.0106526,28.05,-35.55,50.25,-0.713716,1.19871,10.6401
21799788,-0.0117179,0.00852211,0.00426106,29.25,-34.2,48.3,-0.720901,1.21308,10.7023
21822627,-0.00852211,0.00958738,0.0127832,29.85,-34.05,48.75,-0.720901,1.1556,10.7598
21835790,-0.00106526,0,0.00426106,27.9,-34.2,47.55,-0.694556,1.19152,10.7239
21858614,-0.00532632,0.00745685,0.00745685,27.9,-34.2,48,-0.656235,1.20589,10.7263
21870788,-0.00852211,0.00958738,0.00532632,29.55,-35.55,48.75,-0.675396,1.26098,10.7406
21893621,-0.00532632,0.00745685,0.00426106,28.65,-34.2,49.35,-0.687371,1.2514,10.6688
21906790,-0.0138484,0.00639159,0.00639159,27.75,-34.35,47.1,-0.555645,1.14362,10.7095
21929614,-0.00958738,0.015979,0.0106526,27.3,-33.6,48.45,-0.742456,1.13404,10.6712
21941793,0.00426106,0.0138484,0.0127832,29.7,-33.75,48.6,-0.65384,1.24421,10.7263
21964614,-0.00106526,0.0138484,0.0106526,27.75,-34.8,49.8,-0.708926,1.16039,10.7622
21977789,-0.00639159,0.00319579,0.00532632,29.85,-35.55,47.7,-0.706531,1.21787,10.688
22000627,-0.00852211,0.0117179,0.00852211,29.1,-34.05,49.5,-0.730481,1.13165,10.7095
22013789,-0.00852211,0.00532632,0.00532632,28.5,-35.55,48.45,-0.711321,1.1053,10.6832
22026787,-0.00213053,0.00958738,0.00639159,28.65,-34.2,49.05,-0.787961,1.13644,10.7119
22049614,-0.00852211,0.00852211,0.00852211,28.2,-33.75,47.55,-0.696951,1.20589,10.7957
22062795,-0.00532632,0.0127832,0.00426106,28.8,-36.15,48.45,-0.675396,1.19152,10.6305
22085614,-0.00852211,0.0117179,0.00639159,27.75,-34.35,48.75,-0.732876,1.17955,10.7742
22097788,-0.0117179,0.0149137,0.0117179,30.15,-34.05,48.15,-0.711321,1.1532,10.6999
22120625,-0.0106526,0.0106526,0.00639159,28.65,-33.75,49.05,-0.725691,1.17955,10.6951
22133793,-0.00426106,0.0117179,0.00745685,27.6,-35.25,47.55,-0.754431,1.13165,10.7023
22156614,-0.00532632,0.0106526,0.00639159,29.25,-34.5,49.35,-0.819097,1.18194,10.7119
22168788,-0.00639159,0.00958738,0.00319579,29.25,-34.5,48.3,-0.708926,1.18913,10.6975
22191627,-0.00639159,0.0127832,0.00639159,29.25,-32.7,48.3,-0.728086,1.17476,10.7814
22204793,-0.00852211,0.02024,0.00958738,29.25,-34.95,49.05,-0.730481,1.14841,10.6784
22217788,-0.00106526,0.00532632,0.00426106,28.65,-34.5,48,-0.771196,1.16518,10.7191
22240627,-0.00958738,0.00958738,0.00852211,28.2,-34.95,48.3,-0.716111,1.07656,10.7359
22253789,-0.00213053,0.00639159,0.00745685,27.3,-33.3,48.75,-0.692161,1.11249,10.6712
22276614,-0.00532632,0.0117179,0.00745685,29.25,-35.25,46.95,-0.754431,1.2011,10.7239
22288788,0.00639159,0.00958738,0.00745685,29.1,-34.35,48.75,-0.608335,1.30648,10.779
22311620,0.00426106,0.0117179,0.00745685,28.8,-35.1,47.1,-0.60115,1.24182,10.7071
22324793,-0.0245011,0.0181095,0.0117179,29.1,-32.85,48.15,-0.809517,1.10291,10.676
22347614,-0.00319579,0.00532632,-0.00106526,27.75,-34.35,48.15,-0.740061,1.14123,10.7359
22359793,-0.00106526,0.015979,0.0117179,27.75,-35.55,48.45,-0.708926,1.19152,10.7143
22382614,-0.0117179,0.00958738,0.00319579,28.05,-34.35,47.7,-0.720901,1.22984,10.7095
22395789,-0.00852211,0.00852211,0.00745685,27.9,-34.95,49.35,-0.706531,1.19392,10.7454
22418627,0.00106526,0.00745685,0.00745685,28.8,-35.1,48.45,-0.737666,1.13644,10.6951
22431789,-0.00319579,0.0106526,0.00745685,27.6,-35.7,48.6,-0.711321,1.17715,10.7143
22444788,-0.00852211,0.00532632,0.0106526,28.8,-34.8,49.2,-0.728086,1.17955,10.755
22467614,-0.00639159,0.00745685,0.00639159,29.55,-34.35,48.45,-0.754431,1.13165,10.6904
22479795,-0.0127832,0.00426106,0.00426106,28.8,-34.8,48.45,-0.759221,1.16278,10.6856
22502614,-0.00958738,0.00852211,0.00852211,29.1,-36.15,48.75,-0.704136,1.18913,10.767
22514788,-0.00639159,0.00958738,0.0106526,28.5,-33.6,49.2,-0.728086,1.19871,10.7215
22537627,-0.0117179,0.0117179,0.00639159,28.95,-35.7,48.6,-0.718506,1.13644,10.6975
22550790,-0.0106526,0.00958738,0.00426106,27.75,-34.35,48.45,-0.718506,1.18434,10.7263
22573614,-0.00958738,0.0149137,0.00532632,28.5,-33.6,48.75,-0.608335,1.24661,10.7263
22585788,-0.00958738,0.0117179,0.00639159,28.95,-34.95,48,-0.730481,1.11009,10.6904
22608620,-0.00532632,0.0127832,0.00532632,28.95,-35.25,49.35,-0.771196,1.17955,10.7143
22621793,-0.00426106,0.0138484,0.0127832,28.05,-34.05,49.2,-0.718506,1.16039,10.6975
22644614,-0.00319579,0.00852211,0.00319579,27.75,-34.05,47.1,-0.716111,1.17715,10.676
22656820,-0.0149137,0.015979,0.0106526,28.65,-33,47.25,-0.742456,1.17715,10.7095
22679614,0.00426106,0.0117179,0.0127832,28.8,-34.8,46.65,-0.716111,1.22745,10.7742
22692789,-0.00106526,0.0149137,0.00745685,29.55,-34.05,49.2,-0.799937,1.19871,10.6904
22715649,-0.0127832,0.00426106,0.00639159,28.95,-34.5,48.3,-0.799937,1.05261,10.7095
22728789,-0.00213053,0.00639159,0.00532632,29.7,-34.2,48,-0.790356,1.15081,10.7909
22741787,-0.00106526,0.00745685,0.00426106,28.95,-33.75,47.55,-0.843047,1.08375,10.6401
22764614,-0.0170442,0.00958738,-0.00426106,29.7,-33.45,47.25,-0.687371,1.18913,10.6808
22776830,-0.00319579,0.0117179,0.00426106,28.05,-34.35,48.15,-0.661025,1.23463,10.7598
22799614,0.00213053,0.0138484,0.00745685,29.1,-33.6,48.45,-0.761616,1.19152,10.6999
22811788,-0.00958738,0.0138484,0.00532632,29.7,-33.75,49.65,-0.737666,1.13644,10.7071
22834639,-0.00639159,0.0117179,0,28.8,-34.35,48.45,-0.720901,1.1556,10.7263
22847790,-0.00213053,0.0138484,0.00532632,28.65,-34.5,48.3,-0.728086,1.1556,10.7119
22870614,-0.00532632,0.0117179,0.00745685,29.85,-35.1,49.8,-0.761616,1.11728,10.7167
22882788,-0.00852211,0.00958738,0.00319579,30,-33.45,49.05,-0.723296,1.21068,10.7359
22905634,-0.00213053,0.0138484,0.0106526,27.75,-33.3,48.45,-0.744851,1.09572,10.7215
22918793,-0.0106526,0.0106526,0.00213053,28.95,-33,48,-0.696951,1.12446,10.7047
22941614,-0.00426106,0.0117179,0.00745685,28.65,-34.95,49.05,-0.716111,1.12925,10.7646
22953799,-0.00106526,0.0213053,0.00213053,28.2,-33.45,47.25,-0.689766,1.13165,10.6975
22976615,-0.00852211,0.0127832,0.00958738,27.9,-34.95,49.05,-0.744851,1.19392,10.7095
22989786,-0.00213053,0.0191748,0.00639159,28.5,-34.35,47.1,-0.766406,1.08375,10.7311
23012615,0.00213053,0.0138484,0.00745685,29.1,-32.85,48.75,-0.711321,1.11249,10.755
23025785,-0.00319579,0.015979,0.00745685,29.25,-35.25,47.25,-0.718506,1.1556,10.7023
23038793,-0.00213053,0.0170442,0.0117179,30.75,-35.7,48.6,-0.701741,1.19392,10.7095
23061614,-0.00745685,0.0127832,0.00852211,29.55,-33.6,49.2,-0.696951,1.23703,10.7598
23074832,-0.0106526,0.0117179,0.00319579,28.05,-33.3,48.75,-0.500559,1.19392,10.6832
23097615,-0.00852211,0.0138484,0.0106526,28.05,-34.05,48.15,-0.787961,1.12207,10.6927
23110782,-0.00319579,0.00958738,0,28.95,-34.5,48,-0.58199,1.22026,10.7071
23133614,-0.00745685,0.0191748,0.0149137,28.95,-34.95,48,-0.730481,1.15081,10.6927
23146790,0,0.0106526,0.00745685,29.1,-34.05,48.45,-0.792751,1.18913,10.7263
23169614,-0.0170442,0.00319579,-0.00213053,28.5,-34.35,48.75,-0.65863,1.19631,10.7359
23181789,-0.00745685,0.0138484,0.00426106,29.85,-34.05,48.15,-0.732876,1.22505,10.7191
23204627,-0.00426106,0.0191748,0.0117179,28.5,-34.35,47.7,-0.790356,1.1077,10.676
23217789,-0.00852211,0.00745685,-0.00106526,29.7,-33,48.3,-0.742456,1.15081,10.743
23230783,-0.0127832,0.0149137,0.00958738,29.1,-34.35,48.15,-0.687371,1.16997,10.7454
23253614,-0.00106526,0.00745685,0.00213053,29.55,-34.05,47.4,-0.754431,1.20589,10.6808
23266790,-0.0245011,0.0149137,0.00852211,28.05,-33.6,49.2,-0.809517,1.10291,10.6688
23289614,0.00319579,0.0149137,0.0117179,29.1,-34.8,47.4,-0.63947,1.26816,10.8125
23302788,0.00319579,0.00639159,0.0170442,28.8,-34.8,48.75,-0.840652,1.10051,10.5826
23325627,-0.0181095,0.0106526,0.00106526,28.95,-33.45,49.35,-0.593965,1.20829,10.7406
23338793,-0.00213053,0.0138484,0.00745685,28.2,-35.25,48.6,-0.670605,1.18673,10.7406
23361614,-0.0127832,0.0223706,0.00958738,29.85,-35.85,49.2,-0.773591,1.11967,10.6664
23373789,-0.00426106,0.0106526,0.00213053,28.2,-34.5,48,-0.61552,1.2011,10.7071
23396614,-0.0181095,0.0181095,0.0106526,28.05,-33.6,48.15,-0.732876,1.2011,10.6137
23408789,-0.0213053,0.00958738,0.00426106,30.45,-34.5,49.05,-0.759221,1.16039,10.755
23422080,-0.0170442,0.0149137,0.00319579,29.25,-33.75,48.6,-0.742456,1.17715,10.7263
23445635,-0.0223706,0.0127832,0.00639159,29.1,-33.6,46.65,-0.687371,1.16757,10.7287
23458789,-0.0266316,0.00852211,-0.00426106,28.2,-35.7,48.3,-0.718506,1.21787,10.7143
23481614,-0.0266316,0.00745685,-0.00213053,27.9,-34.95,49.05,-0.855022,1.13883,10.7478
23493797,-0.0138484,0.00745685,0.00639159,27.9,-34.2,49.35,-0.637075,1.25858,10.7694
23516615,-0.0287621,0.00426106,0,29.7,-35.7,49.35,-0.764011,1.14602,10.6448
23528783,-0.0213053,0.00106526,0,29.85,-34.35,48.15,-0.766406,1.21787,10.8125
23551614,-0.0149137,0.00852211,0.00426106,27.3,-35.55,48.15,-0.752036,1.12207,10.8077
23564788,-0.0170442,0.00213053,-0.00106526,29.1,-33.6,48.75,-0.63468,1.22505,10.7071
23587614,-0.0276969,0.00532632,-0.00532632,28.65,-34.2,48.3,-0.783171,1.03824,10.6784
23599783,-0.015979,0.00639159,0.00319579,29.25,-35.7,48.3,-0.730481,1.1053,10.7406
23622627,-0.00745685,0.00745685,0.00213053,28.5,-35.55,48.75,-0.778381,1.1556,10.6305
23635789,-0.02024,0.00639159,0.00213053,28.05,-34.05,47.7,-0.684976,1.15799,10.6448
23648787,-0.0170442,0.00639159,0,27.15,-36.45,49.05,-0.728086,1.16278,10.7502
23671614,-0.0191748,0.0287621,0.00639159,29.1,-36.9,48.45,-0.713716,1.28253,10.6832
23684791,-0.0127832,0.00745685,-0.0117179,29.55,-34.35,49.2,-0.747246,1.14123,10.6951
23707614,-0.00639159,0.02024,-0.00213053,28.65,-34.95,47.25,-0.878972,1.12686,10.8173
23719787,0.00106526,0.0106526,-0.00319579,30,-35.7,49.05,-0.747246,1.11488,10.6425
23742627,-0.02024,0.0138484,0.00106526,29.55,-34.8,48.45,-0.622705,1.10051,10.7406
23755789,-0.00426106,0.0213053,0.00106526,27.9,-34.95,49.35,-0.814307,1.12686,10.7981
23778614,0.0181095,0.0213053,-0.00106526,28.8,-35.1,47.7,-0.740061,1.20829,10.7598
23791793,-0.00426106,0.0351537,-0.00426106,28.65,-34.95,47.55,-0.735271,1.13883,10.5682
23814620,-0.00106526,0.0351537,0.00532632,29.25,-34.95,48,-0.740061,1.11488,10.7071
23827790,-0.015979,0.056459,0.02024,28.8,-33.3,48.45,-1.18793,1.09812,10.7957
23840785,0.0490022,0.00319579,-0.0351537,28.2,-34.95,48,-0.421523,1.38552,10.7526
23863627,-0.0585895,0.0415453,-0.00532632,28.8,-35.1,48.45,-1.24302,0.851429,10.5011
23876790,-0.0575243,0.0149137,0.00958738,28.8,-33.3,48.75,-0.58199,1.23224,10.7622
23899614,-0.0149137,-0.00745685,-0.0191748,28.8,-34.35,49.2,-0.61552,1.28972,10.87
23911792,0.0191748,0.0127832,-0.0138484,28.95,-34.95,48.3,-0.483794,1.27535,10.6209
23934621,-0.036219,0.0308927,-0.00852211,29.55,-35.1,48.45,-1.10889,1.249,10.7239
23947790,0.0298274,-0.00106526,-0.0245011,29.25,-36,47.25,-0.502954,0.9616,10.8029
23970614,-0.0394148,0.0511327,-0.0266316,29.55,-35.1,48.45,-0.476609,1.05501,10.6808
23982793,-0.0287621,0.0671117,-0.00319579,28.8,-36.9,48.15,-0.646655,1.2514,11.0831
24005614,0.0223706,0.106526,0.00213053,29.1,-35.55,47.7,-0.617915,1.27056,10.7047
24017788,-0.0490022,0.0745685,-0.00639159,29.55,-34.05,48.15,-0.809517,0.667013,10.5179
24040627,0.00958738,0.0383495,-0.0543285,29.7,-34.95,49.05,-1.20469,0.93286,10.8245
24053789,0.00532632,0.0852212,0.0127832,28.65,-33.75,48.3,-0.749641,1.00711,10.5826
24076614,-0.0458064,0.0479369,-0.0479369,28.5,-34.35,48.15,-0.684976,1.32804,10.767
24089788,0.0191748,0.0980043,-0.0213053,28.8,-34.35,47.7,-0.974773,0.92807,10.9442
24102793,0.0266316,0.0980043,0.0276969,28.65,-34.5,48,-1.03704,1.25619,10.6592
24125614,0.0255663,0.0490022,-0.0575243,30.45,-34.95,49.05,-1.12566,0.765209,10.7143
24137789,-0.0372843,0.0873517,-0.0191748,29.55,-35.85,48.45,-0.811912,1.39749,10.8149
24160627,0.015979,0.104396,-0.0181095,29.85,-35.1,48.15,-1.01309,0.609532,10.8556
24173789,0.0596548,-0.00426106,-0.0660464,28.95,-35.7,46.95,-0.490979,1.43102,10.949
24196614,0.0170442,0.0500674,0.0127832,28.8,-35.55,48.45,-0.941243,1.14602,10.8388
24209789,-0.00532632,0.0777643,0.0170442,28.95,-36.45,48,-1.09931,1.69208,10.5538
24232614,-0.0649811,0.103331,0.0255663,29.7,-34.2,48,-1.26936,1.249,10.7526
24244788,-0.0447411,0.108657,0.0298274,28.65,-34.2,46.95,-1.08973,1.11009,10.5227
24267614,-0.0426106,0.0191748,-0.0340885,28.95,-36.45,47.25,-0.510139,1.17476,10.7957
24279800,0.0106526,0.015979,-0.0213053,27.9,-34.95,49.35,-1.38193,1.34001,10.9083
24302614,0.0181095,0.0213053,0.015979,29.7,-35.25,47.55,-0.548459,1.1556,10.9322
24314788,0.0458064,-0.0436758,-0.0181095,28.5,-34.35,47.1,-1.14961,0.645458,10.4101
24337627,-0.0639159,-0.00319579,-0.00958738,29.7,-35.25,47.25,-0.155676,1.38791,10.7335
24350790,-0.00426106,-0.00213053,-0.00106526,29.25,-34.5,46.5,-1.41306,0.827479,10.87
24373614,0.0468716,0.0298274,0.0138484,27.75,-34.35,48.75,-0.359253,1.49808,10.6904
24385788,0.0330232,-0.00106526,-0.0181095,27.75,-34.35,48.15,-0.371228,1.08135,10.6017
24408620,-0.0234358,-0.00532632,-0.0298274,29.55,-34.05,48.45,-1.31487,0.595162,10.4772
24421793,-0.0245011,0.0149137,0.00106526,29.25,-33,47.55,-0.570015,1.14123,10.6568
24434788,-0.0170442,0.0490022,0.00745685,29.25,-34.95,48.3,-1.41785,0.693358,10.8053
24457614,0.0532632,0.0106526,-0.0149137,29.1,-34.8,47.7,-0.299377,1.43102,10.8532
24469788,-0.015979,0.0830906,0.0298274,29.1,-34.35,48.15,-0.977168,0.872985,10.3958
24492614,0.0490022,0.0127832,-0.0298274,28.65,-34.95,48.6,-0.790356,1.24421,10.9275
24505789,0.0415453,0.0884169,0.0266316,30,-34.95,48.3,-1.46336,0.815504,10.7215
24529634,0.052198,0.0873517,0.0234358,29.7,-34.5,47.55,-1.11608,1.03585,10.7167
24542790,0.0276969,0.0639159,0.0223706,29.1,-35.85,47.4,-1.06339,0.916095,10.6281
24565614,0.00639159,0.0468716,-0.0298274,29.55,-35.85,47.7,-0.675396,1.29211,10.6927
24578795,0,0.0809601,0.0213053,30.15,-35.85,46.65,-0.840652,1.08854,10.6353
24591790,0.0468716,0.0745685,0.02024,28.95,-35.25,48,-0.979563,1.02148,10.6209
24614614,0.0511327,0.0703075,0.00852211,28.5,-34.05,47.4,-1.35558,1.37115,10.8101
24626788,0.0308927,0.0234358,-0.0117179,29.55,-34.35,47.4,-1.27176,1.06459,10.7191
24649620,0.00319579,0.0276969,0.00213053,30.45,-34.95,48,-0.910107,1.17715,10.676
24661793,-0.00319579,0.0138484,0.00426106,29.85,-34.35,47.7,-1.14961,1.12446,10.6257
24684614,0.00639159,0.0276969,0.00639159,29.25,-34.95,49.65,-0.965193,1.21068,10.7909
24696814,0.0170442,0.0213053,0.0149137,28.8,-34.8,48.15,-1.16877,1.22026,10.6065
24719614,-0.00213053,0.015979,0.00639159,30.75,-34.95,47.25,-1.09213,1.18434,10.6688
24731789,0.0117179,0.0127832,0.0106526,29.7,-34.5,47.55,-1.11608,1.11728,10.7023
24754641,0.0138484,-0.0138484,0.00958738,28.8,-34.35,47.7,-1.14003,1.22266,10.6209
24767789,0.00319579,-0.0394148,0.00852211,29.25,-33,47.55,-1.15919,1.16278,10.7502
24790614,0.00852211,-0.0415453,0.02024,29.55,-34.8,48.75,-1.06818,1.21308,10.6161
24802789,-0.0181095,-0.0479369,0.0234358,31.05,-35.25,48.6,-1.08973,1.18913,10.676
24825627,-0.0117179,-0.0607201,0.0138484,29.55,-35.1,48.15,-1.08734,1.28253,10.7981
24838790,-0.0191748,-0.0532632,0.0181095,28.2,-34.95,48.6,-0.991538,1.20589,10.5562
24861614,-0.0149137,-0.0298274,0.00639159,29.55,-34.8,47.7,-1.0083,1.11967,10.7574
24873792,0.015979,-0.0340885,0.0138484,28.2,-34.2,48,-0.984353,1.22026,10.7766
24896614,-0.0149137,-0.0394148,0.0191748,28.95,-33.75,49.35,-1.09931,1.22984,10.652
24908788,-0.00639159,-0.0553937,0.02024,29.1,-36.15,48.15,-1.02746,1.14602,10.7957
24931614,0.00106526,-0.0681769,0.0245011,28.2,-34.5,48.3,-1.0083,1.22505,10.6712
24944789,-0.0223706,-0.0713727,0.0223706,29.55,-34.35,48.45,-1.06099,1.14123,10.6401
24957790,-0.0127832,-0.0575243,0.0340885,29.25,-34.2,48,-1.04183,1.11728,10.7167
24980614,0.0213053,-0.0575243,0.0276969,28.5,-34.05,49.2,-0.828677,1.10291,10.6927
24992788,0.0234358,-0.052198,0.0351537,28.2,-34.2,47.55,-1.00591,1.2514,10.7047
25015621,0.0191748,-0.0458064,0.0372843,28.95,-35.7,47.55,-0.900527,1.28253,10.6832
25028788,0.0319579,-0.0532632,0.04048,29.1,-34.35,49.2,-1.02028,1.25619,10.6808
25051614,0.0490022,-0.0617853,0.0436758,27.6,-34.95,47.55,-1.03944,1.1053,10.676
25064791,0.104396,-0.0553937,0.052198,29.25,-35.25,49.35,-0.809517,0.94723,10.652
25087614,0.14168,-0.0383495,0.0745685,28.8,-35.85,48.75,-0.821492,0.736469,10.5371
25100786,0.317449,0.00213053,0.126766,29.25,-33.75,49.35,-0.335303,1.32804,10.5299
25123627,0.333428,0.0330232,0.151268,28.8,-34.05,47.7,-0.730481,1.10291,10.3479
25136789,0.54435,0.0266316,0.103331,28.2,-33.75,48.6,-0.799937,1.06219,10.5514
25149789,0.728641,0.102265,0.0809601,28.95,-33,49.65,-0.227527,0.882565,10.1084
25172615,0.920388,0.207727,0.118244,29.1,-34.35,48.45,-0.641865,1.1077,10.4149
25185787,1.12385,0.243946,0.122505,30.6,-32.1,50.55,-1.01309,1.26098,10.6568
25208614,1.15794,0.271642,0.26099,29.85,-31.05,49.8,1.75555,2.17109,9.84251
25220789,1.17605,0.246076,0.304666,30.75,-30.9,51.45,-1.62861,2.21899,11.804
25243627,1.43917,0.315318,0.446346,30.75,-30.15,51.45,-1.53042,2.22617,9.93832
25256789,1.41254,0.400539,0.637028,29.55,-27,51.9,-1.26457,2.15432,10.7287
25279614,1.4967,0.426106,0.82558,31.65,-28.5,53.4,-1.3963,2.95665,11.5909
25291791,1.39124,0.414388,0.965129,31.35,-26.25,53.4,-2.29682,3.4165,13.1189
25314620,1.43172,0.32384,1.02265,32.55,-25.35,53.55,-2.37107,3.28956,10.743
25327790,1.20375,0.232228,1.00881,33.45,-22.2,55.5,-1.825,3.02611,10.7287
25350614,1.30708,0.294013,0.969391,34.5,-21.45,55.5,-2.67045,1.87171,11.9214
25362795,1.14836,0.245011,0.598679,34.35,-20.85,54.9,-3.96615,1.21787,11.2891
25385614,0.898018,0.187487,0.185356,34.35,-19.35,55.35,-2.81175,0.0490979,11.0975
25397788,0.870321,0.16192,-0.015979,35.55,-17.4,56.85,-1.29331,-0.221539,10.4844
25420627,0.695618,0.0628506,-0.0628506,35.4,-19.35,57,-0.498164,-0.386796,11.1095
25432790,0.296144,-0.04048,-0.0330232,36.15,-16.35,55.95,0.191602,-0.223934,12.9584
25446084,-0.0809601,-0.0596548,0.0266316,34.8,-15.9,57.6,0.189207,-0.252675,11.8016
25468614,-0.377104,-0.124636,0.0543285,35.7,-15.6,57,-0.256267,-0.372426,10.4748
25480795,-0.599744,-0.175769,0.0255663,36.6,-17.4,56.1,-0.694556,-0.152084,11.84
25503614,-0.817058,-0.142745,-0.0372843,35.7,-16.35,56.25,-0.965193,0.00119751,11.0879
25515788,-1.03544,-0.110787,-0.151268,36.45,-16.05,56.7,-1.41067,0.35087,10.391
25538627,-1.09829,-0.0841559,-0.275903,39.3,-17.85,57,-1.81303,1.04782,11.6627
25551790,-1.29643,-0.0511327,-0.400539,38.7,-21,56.1,-1.45378,1.59149,11.5142
25574614,-1.48391,-0.0181095,-0.459129,41.25,-21.45,55.8,-1.13763,1.97469,11.9573
25586788,-1.5702,-0.0436758,-0.471912,40.5,-24.3,52.95,-1.08015,2.00583,10.9801
25609620,-1.53078,-0.0639159,-0.438889,43.95,-25.65,48.6,-1.20709,2.4058,11.6531
25621793,-1.61601,-0.0777643,-0.438889,46.65,-28.5,45.3,-1.33882,2.65967,11.7178
25644614,-1.67566,-0.0479369,-0.419714,47.55,-28.2,41.7,-1.35798,2.79619,11.6843
25656814,-1.58618,0.0138484,-0.403735,49.05,-26.55,37.35,-1.40827,2.79619,10.585
25679614,-1.45409,0.052198,-0.392017,50.7,-25.65,33.3,-1.51844,2.82493,10.4628
25691789,-1.33691,0.106526,-0.383495,51.9,-24,31.35,-1.65017,3.08598,11.0879
25714640,-1.32838,0.109722,-0.371777,51.75,-20.85,30.9,-1.21428,3.16502,11.3777
25727789,-1.22292,0.123571,-0.305731,52.65,-21,28.5,-0.981958,2.77942,10.5155
25750614,-1.12385,0.129962,-0.245011,52.95,-18.45,28.95,-0.922083,2.70757,10.2401
25762789,-0.999218,0.170442,-0.167247,53.4,-18.45,28.2,-0.866997,3.22489,11.5789
25785627,-1.03863,0.216249,-0.0884169,52.05,-16.8,28.8,-0.847837,3.43326,12.0411
25798790,-1.17179,0.207727,0.02024,51.45,-16.05,29.1,-0.426313,3.05724,10.6185
25821614,-1.00348,0.198139,0.183225,50.85,-14.7,27.45,-0.689766,2.73631,9.9455
25833790,-0.895887,0.16192,0.383495,50.4,-15.6,29.1,-0.107776,2.82014,11.1718
25856614,-0.951281,0.268447,0.630637,48.75,-15.15,28.5,-0.313748,2.71236,11.2364
25868788,-0.975782,0.291882,0.680704,48.45,-13.95,28.2,-1.61903,2.17109,10.4844
25891614,-0.854342,0.249272,0.527306,49.2,-12,28.35,-3.08479,2.3579,9.82814
25904789,-0.852211,0.115049,0.196009,46.95,-11.85,29.55,-3.89909,2.99018,11.1286
25917790,-0.896953,0.0617853,-0.109722,47.7,-11.1,29.25,-3.52786,3.08119,10.3982
25940614,-0.810666,0.0415453,-0.318514,46.8,-12.3,29.1,-2.64889,3.16981,9.98622
25952788,-0.769121,0.0884169,-0.410127,44.7,-10.5,30.15,-1.82021,3.16981,8.86774
25975621,-0.610397,0.0649811,-0.453803,46.35,-12,29.1,-1.59748,3.20573,8.84379
25988788,-0.381365,0.0575243,-0.44315,45.6,-12.15,29.55,-1.40109,2.96863,8.24983
26011614,-0.185356,0.0980043,-0.441019,43.8,-11.4,29.55,-1.16398,2.96863,8.47017
26024791,0.0980043,0.177899,-0.383495,44.85,-10.65,28.95,-1.20469,3.0764,8.73123
26047614,-0.0660464,0.178964,-0.353668,43.95,-12,29.4,-1.6813,3.63444,10.9442
26059786,0.0298274,0.0841559,-0.324906,45.15,-10.35,28.95,-1.5855,3.08838,9.11203
26082627,0.383495,0.02024,-0.257794,43.35,-10.35,28.5,-0.955613,4.98763,4.69322
26095789,1.25275,0.0276969,-0.12144,43.2,-10.05,28.05,-0.828677,3.7015,8.68093
26118614,0.592287,-0.0575243,-0.218379,43.8,-8.85,28.95,-2.12917,-0.324525,11.7897
26130788,0.340885,-0.234358,-0.312122,44.25,-10.05,28.35,-1.29331,-3.36381,14.4074
26144090,0.330232,-0.150202,-0.177899,44.4,-10.65,29.25,-0.102986,-2.3076,6.30986
26166614,1.33584,-0.0692422,-0.00319579,43.8,-9.6,27.9,0.244292,-0.872985,8.59471
26178788,1.11427,-0.133158,0.140615,43.2,-9,29.1,-0.193997,0.88975,13.3153
26201627,1.04289,-0.145941,0.272708,44.85,-9.6,29.25,-1.38911,0.772394,11.6579
26214789,1.04076,-0.118244,0.199204,43.2,-9.3,29.4,-3.53265,0.999921,11.5573
26237614,0.826645,-0.18003,0.0223706,45,-6.75,28.8,-2.72314,1.57473,12.6112
26249788,0.751011,-0.276969,0.00745685,43.95,-7.5,29.85,-1.50886,1.59868,11.8711
26272614,0.671117,-0.28123,0.0553937,43.5,-7.2,30.45,-1.67412,1.55557,12.4531
26284789,0.0191748,-0.267381,-0.0351537,44.7,-6.75,30.15,-0.62989,1.94356,13.3943
26307614,0.366451,-0.127832,0.0415453,44.85,-6.9,29.25,-1.20469,0.398771,9.67726
26319799,0.0937433,-0.153398,-0.0117179,45,-6,29.4,-0.993933,1.03824,11.5214
26342614,0.24288,-0.145941,-0.00106526,43.95,-7.95,29.1,-1.14482,0.741259,10.4724
26354789,0.232228,-0.144876,-0.00213053,43.5,-7.2,30.45,-0.974773,0.532892,10.2161
26377627,0.3036,-0.140615,0.00852211,44.4,-6.15,30.3,-1.04662,0.872985,11.1286
26390789,0.234358,-0.117179,0.0213053,44.25,-4.95,30.15,-1.17835,0.587977,10.4269
26413614,0.24075,-0.162985,-0.00745685,44.1,-7.35,28.95,-1.11368,1.43342,11.0113
26426789,0.268447,-0.120375,0.0276969,43.95,-6.45,30.45,-1.22625,1.44539,11.5669
26449620,0.124636,-0.104396,-0.0372843,45,-7.2,30.15,-1.07057,1.16278,10.0413
26461790,0.172573,-0.0458064,0.0276969,43.8,-6.6,30.3,-0.58678,1.00471,11.8376
26484614,0.172573,-0.015979,0.0255663,43.8,-5.1,31.35,-1.00112,1.01669,10.1922
26496815,0.131028,-0.00532632,-0.00319579,44.25,-4.5,30.45,-1.01309,1.28014,11.258
26519614,0.0873517,-0.00958738,-0.0106526,43.05,-5.85,31.05,-0.881367,1.45976,10.8101
26532788,0.0958738,0.0106526,0.00106526,45.3,-6,29.85,-0.912502,1.30169,10.7071
26545788,0.0191748,0.00639159,-0.0127832,44.4,-5.85,30.6,-0.958008,1.1077,10.5634
26568620,0.135289,0.0458064,-0.0138484,44.1,-5.55,28.5,-0.593965,1.75435,11.0616
26580793,0.0745685,0.0692422,-0.00213053,44.1,-5.85,29.55,-1.9232,0.628693,9.92634
26603614,0.100135,0.0436758,-0.0117179,45.15,-5.1,30,-1.13524,1.06219,11.1262
26615833,0.115049,0.0117179,0.036219,44.25,-6,29.85,-1.02267,1.55796,10.949
26638614,0.0681769,0.0117179,0.0149137,42.45,-5.25,30.9,-1.03225,1.65855,10.6425
26651789,0.0191748,0.04048,0.00639159,44.85,-5.55,30.6,-1.11368,1.17955,10.7478
26674640,0.0415453,0.0607201,0.0234358,44.85,-5.85,30.6,-1.14003,1.249,10.7885
26687789,0.0383495,0.00106526,-0.0511327,44.85,-5.85,29.25,-0.368833,2.116,10.5922
26710614,0.00852211,0.0820254,-0.015979,45.15,-5.85,28.95,-1.00351,1.84776,10.882
26722789,0.0681769,0.118244,-0.0255663,44.4,-5.1,29.55,-0.778381,1.27295,10.6832
26745627,0.0713727,0.0671117,0.00532632,43.8,-6.15,29.25,-0.718506,1.66574,10.5778
26758790,0.0170442,0.0447411,-0.0255663,43.5,-6,28.35,-1.33882,1.81662,10.7909
26781614,-0.00852211,0.0884169,0.00852211,43.95,-6.75,30.9,-1.34121,1.33283,10.6832
26793802,0.04048,0.0692422,-0.0117179,44.4,-5.1,30,-1.07536,1.55078,10.6137
26816614,0.015979,0.0553937,-0.0372843,45.75,-5.7,29.1,-0.720901,1.59868,10.6305
26828786,0.0149137,0.00852211,-0.00745685,43.8,-4.35,29.55,-0.888552,2.29084,10.9466
26842086,0.0671117,-0.00319579,0,44.25,-6.45,30.45,-1.60227,1.32325,10.4293
26864627,-0.0713727,0.0383495,-0.00106526,45.75,-6.45,29.4,-1.58311,1.13883,10.3622
26877790,-0.00532632,0.02024,0.00639159,43.5,-6.45,29.85,-0.857417,1.59389,10.9275
26900614,0.0276969,0.015979,0.0106526,44.1,-4.35,29.25,-1.71723,1.40947,10.7359
26912789,-0.0649811,-0.052198,-0.0170442,45,-6,29.85,-0.287402,1.56036,10.6712
26935621,0.052198,-0.0745685,-0.0234358,46.05,-5.25,29.85,-0.981958,1.49808,10.6808
26947788,-0.0308927,0.0351537,0.00639159,44.1,-6.6,30.3,-1.27894,0.93286,10.5227
26970614,-0.0170442,0.0308927,0.015979,43.95,-6,29.1,-1.5855,1.45018,10.8245
26982791,0.0884169,-0.0735032,-0.0372843,43.8,-5.1,29.25,-1.03944,1.62502,10.482
27005614,-0.0585895,-0.0276969,0.0181095,45.6,-5.85,30.3,-1.32924,1.57473,10.6568
27017786,0.02024,-0.0266316,0.00106526,44.4,-4.8,29.25,-1.07057,1.3448,11.0496
27040627,-0.0191748,0.00426106,0.0138484,43.5,-5.25,29.85,-1.17116,1.04064,10.0533
27053790,-0.0649811,0.0213053,0.0191748,45.15,-4.35,29.55,-2.00703,0.968785,10.4987
27076614,0.0692422,0.0255663,0.0287621,44.4,-5.55,30,-0.996328,1.62742,10.6951
27088788,0.076699,-0.0394148,-0.0234358,44.7,-5.7,29.85,-1.28134,1.22984,10.3862
27111614,0.015979,0.0490022,0.0340885,43.95,-6,29.85,-0.993933,1.65376,10.7119
27123789,0.0276969,0.0340885,0.0138484,45.6,-4.8,30,-1.31487,1.41426,10.7574
27146614,-0.0181095,0.0596548,0.0490022,44.85,-6.15,30.3,-1.49449,1.13165,10.7215
27158839,-0.0106526,-0.0138484,-0.00639159,45.75,-6,31.2,-1.12326,1.54838,10.6257
27181614,-0.0266316,-0.0138484,0.00213053,43.5,-5.25,30.9,-1.21188,1.27056,10.5754
27193789,-0.00532632,0.00532632,0.00958738,43.05,-5.55,30,-1.03704,1.34959,10.7885
27216654,-0.00639159,0.0223706,0.00958738,44.7,-4.95,30.9,-1.06339,1.36396,10.5562
27229789,-0.0181095,0.0191748,-0.00319579,45.9,-5.55,29.25,-1.17835,1.46216,10.6257
27252614,-0.015979,0.0830906,0.0276969,45.75,-6,29.85,-2.0214,1.52683,10.4772
27264789,-0.0117179,0.00745685,-0.0106526,45.3,-5.7,31.2,-1.12087,1.47413,10.482
27287625,-0.0127832,0.00745685,-0.00213053,46.05,-5.7,29.85,-1.27176,1.36157,10.8867
27300790,0.0415453,0.00958738,-0.0181095,44.25,-5.7,30.9,-1.19032,1.05501,10.5395
27313788,-0.036219,0.0117179,0.00639159,43.35,-4.35,28.95,-1.07776,1.47892,10.5203
27336655,-0.00426106,-0.00852211,-0.00213053,45.3,-7.2,29.85,-1.31487,1.25379,10.8604
27349790,-0.0117179,0.015979,0.00426106,45.15,-5.55,29.25,-1.12326,1.18434,10.4413
27372614,0.00426106,0.0106526,-0.00639159,45.3,-5.7,30.45,-1.30768,1.37594,10.6353
27384788,0.0319579,0.0308927,-0.00426106,45.15,-5.85,30.3,-1.32924,1.31846,10.7119
27407625,0.0170442,0.0916127,-0.0149137,44.7,-4.5,29.85,-1.37953,1.26816,10.4125
27420793,0.00532632,0.123571,-0.00639159,43.95,-4.95,30.15,-1.28134,1.46455,10.5898
27443614,0.0479369,0.126766,0.0106526,43.95,-3.45,30.45,-1.16637,1.43102,10.7622
27455830,-0.00958738,0.072438,-0.0298274,44.85,-5.1,29.55,-1.3939,1.55796,10.5946
27478614,0.00532632,0.0617853,-0.0106526,45,-4.2,29.85,-1.13284,1.33043,10.7981
27490789,0.00213053,-0.00319579,0.0106526,44.25,-5.25,29.4,-1.23823,1.40228,10.4868
27513615,-0.0298274,-0.0394148,0.00532632,43.8,-4.35,30.3,-1.20469,1.1556,10.5682
27526790,-0.00852211,-0.00852211,0.0213053,46.2,-4.8,28.95,-1.32205,1.18913,10.652
27540083,0.0351537,-0.00852211,0.00319579,45.3,-6,31.2,-1.26936,1.50766,10.6113
27562614,0.0138484,-0.0117179,0.015979,45.15,-5.85,28.95,-1.22146,1.3472,10.652
27574871,0.00639159,-0.00213053,0.00532632,45.75,-4.95,29.85,-1.29331,1.52922,10.6377
27597614,0.0181095,-0.00213053,0.0170442,44.1,-5.85,28.95,-1.23583,1.39031,10.7263
27609783,0.0127832,-0.00852211,0.0213053,43.5,-5.25,29.85,-1.34361,1.45497,10.5946
27632618,0.00319579,-0.0223706,0.0138484,44.25,-4.5,29.85,-1.29092,1.34001,10.5993
27644786,-0.00213053,-0.04048,0.0234358,45.15,-4.35,29.55,-1.12087,1.47653,10.6448
27667614,0.0191748,-0.0308927,0.0213053,45.15,-4.05,29.55,-1.33403,1.35678,10.6329
27679786,0.0308927,-0.0213053,0.0340885,46.2,-5.85,30,-1.32445,1.37833,10.5946
27702627,0.0330232,-0.0276969,0.0298274,45.3,-6,29.85,-1.21667,1.47892,10.5778
27715790,0.0553937,-0.0394148,0.0223706,44.4,-5.1,31.05,-1.19751,1.54599,10.7047
27738614,0.0447411,-0.0223706,0.0468716,45.15,-6.15,30.3,-1.37953,1.30648,10.5682
27751790,0.0575243,-0.0276969,0.0191748,45.9,-6.15,31.05,-1.02746,1.61544,10.7071
27774621,0.0479369,-0.0223706,0.0479369,44.85,-3.6,29.55,-1.43222,1.33762,10.4892
27787790,0.0756338,-0.0415453,0.0276969,43.5,-4.95,31.2,-1.28613,1.36636,10.6113
27810614,0.0873517,-0.0436758,0.0181095,45.15,-6.15,31.05,-1.12087,1.49808,10.6041
27822793,0.0884169,-0.0383495,0.0181095,44.85,-4.35,30.6,-1.11129,1.51485,10.7167
27845614,0.0948085,-0.0245011,0.0223706,44.85,-4.35,30.3,-1.11608,1.5891,10.6904
27857788,0.0830906,-0.0245011,0.0276969,44.7,-3.75,30.45,-1.14721,1.45497,10.5227
27880627,0.136354,-0.036219,0.0266316,45,-5.25,30.15,-1.23823,1.33043,10.458
27893790,0.187487,-0.0287621,0.0298274,44.25,-4.5,29.1,-1.04902,1.2969,10.6568
27906787,0.262055,-0.0127832,0.0245011,45,-3,30.9,-1.15679,1.22266,10.4077
27929614,0.377104,0.0287621,0.0500674,45.75,-4.2,30.15,-1.12566,1.19631,10.3934
27941788,0.484695,0.0873517,0.0639159,45.15,-4.05,30.6,-0.773591,1.56994,10.4964
27964614,0.609331,0.172573,0.0575243,44.4,-5.1,30.6,-0.843047,1.62981,10.355
27976789,0.717988,0.259925,0.0607201,44.7,-5.25,31.2,-0.802332,1.3951,10.3838
27999645,0.955542,0.278034,0.0671117,45.3,-4.95,31.5,-1.2502,1.52683,10.4006
28012789,1.07059,0.275903,0.104396,44.85,-3.3,31.05,-1.19751,1.76154,10.4628
28035614,1.25488,0.265251,0.128897,44.25,-4.2,30.15,-1.57353,1.8286,10.4987
28047789,1.38697,0.331297,0.171508,43.95,-2.4,30.15,-1.29571,2.1639,10.3119
28070620,1.55955,0.332363,0.269512,44.25,-2.4,30.15,-0.802332,2.50399,11.1837
28083790,1.71614,0.406931,0.332363,46.05,-2.4,30.15,-1.78668,3.06443,11.3083
28106614,1.78325,0.469782,0.487891,45.75,-1.65,29.4,-1.99745,3.76856,12.022
28119795,1.74064,0.235423,0.50387,45,-0.15,29.1,-2.49801,3.77575,12.1058
28142614,1.69697,-0.00532632,0.508131,44.85,0.3,30.3,-2.82852,3.69911,10.9658
28155788,1.74597,-0.0681769,0.494283,45.9,0.6,31.35,-1.22146,3.77814,10.5059
28168788,1.63944,-0.0191748,0.493217,44.85,1.35,30,-2.10762,3.52906,10.3383
28191620,1.62985,-0.076699,0.427171,44.1,2.1,30.6,-2.06451,3.01174,11.3801
28204793,1.25488,-0.104396,0.355798,43.2,3.75,30.15,-1.10889,1.922,11.9094
28227614,0.849016,-0.0937433,0.319579,43.8,3.6,30,-1.50647,1.31367,13.3608
28239793,0.480434,-0.0756338,0.278034,43.95,4.95,31.5,-1.64059,1.41905,10.7742
28262614,0.108657,-0.0969391,0.16192,43.5,5.25,30.45,-1.47533,0.111368,10.4293
28274789,-0.138484,-0.0596548,0.0873517,41.4,6.75,29.85,-1.27655,-0.0874182,10.3311
28297627,-0.432497,-0.0255663,0.0447411,42.15,6.45,31.2,-1.09213,-0.0395178,10.4437
28310789,-0.773382,-0.0276969,-0.00852211,42.45,6.75,30.9,-1.30768,0.0131726,10.4844
28333614,-1.04183,-0.0149137,-0.100135,40.35,7.2,30.9,-1.64059,0.518522,11.4783
28345789,-1.34649,-0.0681769,-0.297209,42.3,8.1,30.3,-2.15073,0.995131,10.9035
28368620,-1.55635,-0.126766,-0.499609,40.2,8.4,30.3,-1.71723,1.46934,11.0448
28380790,-1.69057,-0.162985,-0.616788,39.45,8.4,30.3,-1.43941,1.85973,11.2843
28403614,-1.81095,-0.20027,-0.664725,40.35,9.75,30.45,-1.42264,2.37466,11.3442
28415831,-1.93559,-0.269512,-0.70414,40.95,8.4,30.6,-1.66933,2.81295,11.4065
28438614,-1.94198,-0.257794,-0.682835,38.1,8.85,30.6,-1.47294,2.74829,11.4855
28450788,-1.94943,-0.205596,-0.633832,38.4,8.4,32.1,-2.1172,3.10514,11.7202
28473614,-1.98885,-0.2024,-0.616788,37.5,9.75,30.9,-2.50759,3.41889,11.6292
28486793,-1.93132,-0.11931,-0.56246,37.8,8.7,31.95,-1.86572,3.57936,11.2173
28499788,-1.85889,0.02024,-0.437824,40.05,8.25,33.3,-1.62143,3.44763,11.8208
28522614,-1.88871,0.0841559,-0.282295,39,8.7,32.25,-0.996328,2.95665,11.6603
28534869,-1.8983,0.11931,-0.123571,38.55,9.3,33.6,-0.958008,2.72433,11.9094
28557614,-1.88871,0.16192,-0.02024,39.6,7.5,33.6,-1.29571,2.98539,11.8448
28579614,-1.8738,0.148072,0.0170442,39.3,7.95,35.7,-1.74597,3.14586,11.3969
28591788,-1.70655,0.132093,0.0543285,39,6.75,33.6,-1.58071,3.18897,10.8412
28604793,-1.53078,0.174703,0.0905475,41.55,5.55,36.9,-1.48252,2.72912,9.88802
28627614,-1.32625,0.178964,0.0841559,42,6.9,37.65,-1.35798,2.6932,10.2521
28639789,-1.19842,0.170442,0.104396,43.05,6.15,37.95,-1.37474,2.4513,10.5251
28662627,-1.23251,0.18216,0.0809601,42.3,4.8,40.05,-1.48731,2.59979,12.034
28675789,-1.16433,0.221575,0.076699,43.35,3.3,40.8,-1.18314,2.31239,10.367
28698614,-1.02905,0.232228,0.0777643,43.95,3.75,41.25,-1.45378,2.15911,9.41141
28710789,-0.86606,0.167247,0.0394148,45,1.65,39.9,-1.60466,2.42017,9.47368
28733620,-0.659399,0.076699,0.0127832,44.4,2.55,40.5,-1.54958,2.22617,8.32886
28746790,-0.284426,0.052198,0.0330232,45,0.9,40.65,-1.32924,2.36269,8.91085
28769614,-0.203465,0.133158,0.0351537,44.85,-0.3,41.1,-1.36037,2.91115,10.7359
28782795,-0.592287,0.250337,-0.00213053,45.6,0.3,41.1,-1.67651,3.88831,13.9619
28805614,-0.612527,0.349407,-0.00639159,45.9,0.3,40.05,-1.79387,2.87283,9.2246
28817788,-0.461259,0.298274,-0.0117179,45.9,-1.05,41.55,-1.63101,2.65967,7.88339
28840627,-0.201335,0.206661,-0.00319579,46.2,-1.05,40.8,-2.14115,2.75547,9.36112
28853790,-0.0213053,0.0745685,-0.0436758,46.05,-1.2,41.7,-2.2585,2.82493,9.59104
28866787,-0.072438,-0.0479369,-0.109722,47.55,-3.45,41.7,-2.05014,2.46088,9.00905
28889614,0.0660464,-0.0596548,-0.109722,46.2,-1.8,42.15,-1.89207,2.05373,9.21023
28901788,0.229032,0.0308927,-0.102265,45.75,-2.4,40.65,-1.23104,1.87889,9.35872
28924614,0.742489,0.0500674,-0.076699,47.55,-2.7,40.95,-0.462239,1.23463,7.82591
28936789,0.264186,0.164051,-0.0713727,46.65,-2.1,40.8,-1.78189,-1.32564,13.6913
28959632,0.407996,0.0468716,-0.0372843,47.55,-0.9,39.9,-1.33163,-3.21292,12.0387
28972789,0.181095,-0.00958738,0.00426106,47.55,-2.4,40.65,-0.110171,-1.82141,8.03667
28995614,0.529436,0.108657,0.15979,46.35,-1.95,39.9,-0.555645,-0.777184,12.0196
29007789,0.556068,0.167247,0.24075,47.25,-0.6,40.05,-0.58199,-0.0538879,11.258
29030620,0.236489,0.11931,0.286556,48,-0.3,39,-1.98547,-0.0371228,11.2053
29042790,0.400539,0.147006,0.287621,48.9,0.15,40.2,-2.98419,-0.611928,12.0843
29065614,0.304666,0.111853,0.18216,49.2,0.15,39.6,-3.49673,-0.688568,9.72037
29077795,0.348341,0.0745685,0.0415453,48.15,0.15,39.6,-3.82724,-0.484991,10.2042
29100614,0.469782,0.015979,-0.0394148,48.75,-0.3,38.7,-3.08,-0.700543,10.0461
29112788,0.529436,-0.0830906,-0.0308927,48.75,0.6,39.45,-1.99505,-0.85622,9.14317
29135652,0.594418,-0.102265,0.0245011,48,1.35,37.95,-1.7771,-0.370031,10.7933
29148790,0.529436,-0.172573,0.0340885,49.95,0.9,38.55,-1.76513,0.403561,11.6076
29171614,0.609331,-0.170442,0.072438,49.05,1.35,38.7,-2.02619,-0.0778381,10.2113
29183788,0.351537,-0.245011,0.0394148,48,1.35,38.4,-2.20821,0.180824,11.0233
29206627,0.601874,-0.24288,0.0245011,48.15,2.7,38.55,-2.15312,-0.159269,10.6281
29219793,0.513457,-0.231162,0.0351537,49.65,1.95,37.5,-1.38672,0.319735,11.0304
29232788,0.433563,-0.213053,0.0649811,47.85,2.4,37.8,-1.64059,0.458646,10.8149
29255652,0.450607,-0.205596,0.0255663,48.6,4.2,38.1,-1.91123,0.525707,10.7909
29268789,0.509196,-0.197074,0.036219,48.6,3,38.1,-1.36756,-0.211959,9.87125
29291614,0.46339,-0.207727,0.072438,50.4,2.7,37.8,-1.42983,0.24549,10.585
29304788,0.569916,-0.26099,0.0553937,47.85,1.95,37.5,-1.70046,0.621508,10.6951
29327614,0.631702,-0.288687,0.0426106,47.85,3,37.5,-1.2526,0.829874,11.0855
29340789,0.430367,-0.148072,0.0713727,48.6,3.75,37.5,-1.44899,1.7807,13.3392
29363614,0.0703075,-0.0798948,-0.00319579,47.55,2.7,37.05,-1.1999,0.813109,10.4796
29375823,0.309992,-0.00106526,0.0596548,47.25,3.6,37.65,-1.66454,0.444276,11.1238
29398614,0.401605,-0.0894822,-0.0117179,49.5,4.35,36.6,-2.01661,0.89454,8.82703
29410789,0.438889,-0.156594,-0.00745685,48.45,3.6,37.35,-1.57113,1.249,10.8939
29433618,0.487891,-0.15979,0.0692422,48.45,3.3,35.55,-1.59029,0.528102,10.2712
29446789,0.428236,-0.150202,0.0884169,47.85,5.25,37.5,-1.03465,1.46455,11.9238
29459784,0.38456,-0.111853,0.0649811,48.9,3.75,36.45,-1.13284,0.96639,10.3958
29482614,0.0884169,-0.092678,-0.0234358,48.9,4.95,37.05,-0.948428,1.51485,12.0459
29494828,0.372843,0.0276969,0.0287621,48.15,4.2,36,-2.35191,0.837059,10.5323
29517614,0.168312,0.00852211,0.00852211,49.2,4.2,36.75,-1.08255,1.46695,10.4317
29529783,0.275903,0.0703075,-0.00426106,48.15,4.5,35.7,-1.06578,1.55557,11.0448
29552614,0.169377,0.0948085,-0.0170442,48.75,5.55,36.6,-1.28852,1.90763,10.9394
29565786,0.0617853,0.0372843,-0.0703075,48.45,4.8,35.25,-0.866997,2.12797,10.9754
29588614,0.100135,0.0575243,0.056459,47.1,4.95,36.45,-1.25739,0.999921,10.5323
29600786,0.305731,-0.18003,0.0798948,48.9,5.25,35.7,-1.20948,2.19025,10.5131
29623627,0.153398,-0.216249,0.0788296,48.15,4.5,35.7,-1.41306,1.49808,10.8939
29636790,0.142745,-0.237554,0.0138484,49.05,4.35,35.55,-0.455054,2.2118,11.143
29659614,0.0394148,-0.118244,0.0276969,47.85,4.5,36.75,-1.2981,1.76633,10.846
29671789,0.0788296,-0.036219,-0.0181095,49.05,5.1,35.85,-1.38911,1.78549,10.9682
29694621,0.0532632,-0.00745685,-0.0149137,48.75,5.1,35.25,-1.58071,1.62502,10.7981
29707790,0.0351537,-0.0223706,0.00319579,48.6,5.25,36.75,-1.64059,1.92679,10.8796
29730614,-0.00852211,-0.0458064,-0.0138484,48.15,4.95,37.05,-1.14003,1.51485,10.4652
29742793,-0.0330232,-0.0266316,0.00106526,47.85,3.45,36.45,-1.25499,1.60586,10.7862
29765614,0.0106526,-0.0298274,-0.00213053,47.55,3.45,36,-1.2981,1.54359,10.7071
29778788,-0.02024,-0.00852211,-0.00426106,47.55,5.25,36,-1.21667,1.62263,10.4748
29791789,-0.0234358,0.00106526,-0.00745685,48.45,4.8,35.25,-1.17116,1.62742,10.688
29814621,0,0.00213053,-0.00106526,48.75,5.1,33.75,-1.22146,1.63221,10.5826
29827790,-0.0351537,0.0266316,0.00426106,48.45,5.55,36.3,-1.31487,1.39989,10.5371
29850614,0.0170442,0.0447411,0.00426106,47.85,5.25,36.75,-1.34121,1.67053,10.7143
29862793,0.00958738,0.04048,-0.00213053,48.6,6,34.65,-0.996328,1.69208,10.6472
29885614,-0.0149137,0.0447411,0.0117179,47.85,5.25,35.7,-1.42264,1.42623,10.5275
29897788,0.00532632,0.0213053,0.00319579,48.9,4.2,35.7,-1.23583,1.52443,10.7071
29920627,0.00106526,0.0266316,0.00958738,48.9,5.7,35.4,-1.26936,1.58191,10.6017
29933790,-0.015979,0.0266316,0.00639159,48.15,4.2,35.4,-1.27655,1.48132,10.5682
29956614,-0.0213053,0.0852212,0.0585895,47.55,6,34.95,-1.75794,1.59868,10.4868
29968788,0.00426106,0.00852211,-0.0138484,48.45,3.3,36.3,-0.926873,1.72561,10.5275
29991620,0.00639159,0.0266316,0.0170442,46.65,5.85,35.25,-1.47533,1.47413,10.652
30004793,0.0340885,0.0330232,0.00213053,48.75,3.6,36.3,-1.23104,1.64658,10.6592
30017788,0.00319579,0.0426106,0,47.25,4.8,36.6,-1.2981,1.55796,10.5275
30040627,0.0127832,0.0447411,0.00958738,48.6,5.25,35.4,-1.45617,1.65855,10.6592
30053789,-0.00958738,0.0266316,-0.0106526,48.15,4.5,36.45,-1.05141,1.42384,10.5275
30076614,-0.00639159,0.0553937,-0.00852211,47.55,4.95,36.45,-1.12087,1.3472,10.5634
30088788,0.0138484,0.0308927,-0.0106526,47.85,6,36.75,-1.04183,2.23575,10.7359
30111614,-0.00532632,0.02024,-0.00852211,49.05,4.8,35.25,-1.52802,1.52922,10.5227
30123789,-0.0127832,0.0649811,0.015979,47.7,4.05,35.55,-1.20469,1.55557,10.5275
30146614,0.0266316,0.0543285,-0.0223706,48.45,4.35,34.8,-1.2502,1.13883,10.7909
30158847,0.0276969,0.076699,0.0170442,48.6,3.75,34.95,-1.08973,1.52683,10.652
30181614,0.00532632,0.0372843,-0.00532632,48.9,5.25,36.45,-1.26697,1.5891,10.5922
30193789,0.0181095,0.04048,0.00532632,47.55,4.95,36,-1.27415,1.61065,10.6664
30216652,0.0298274,0.0394148,0.00958738,47.85,4.5,36,-1.30768,1.52443,10.6616
30229789,0.0330232,0.0340885,0.0127832,49.5,5.55,36.3,-1.59269,1.82141,10.5538
30252614,0.0138484,0.0213053,0.0191748,48.75,4.05,35.25,-1.50407,1.66813,10.6496
30264789,-0.0138484,0.00852211,0.00639159,48.15,3.45,34.95,-1.23104,1.74477,10.6137
30287623,0.0213053,0.0617853,0.00958738,48.9,4.2,34.65,-1.39151,1.637,10.6209
30300790,-0.0170442,0.04048,0.00639159,49.05,4.05,34.8,-1.56634,1.69208,10.4269
30323614,-0.00639159,0.0223706,-0.00106526,48.75,5.85,34.2,-1.25739,1.75196,10.8053
30335861,0.00106526,0.00106526,0.00106526,48.6,3.45,36.45,-1.38432,1.65616,10.5538
30358614,-0.0266316,0.00532632,0.00213053,47.55,5.7,34.65,-1.14242,1.70406,10.5083
30370787,-0.0106526,0.00532632,0.0117179,47.7,3.6,35.55,-1.46096,1.6825,10.7239
30393615,-0.00106526,0.0255663,0.00852211,48.45,5.1,34.8,-1.30289,1.62023,10.3814
30406793,-0.0330232,0.0181095,0.00532632,48,4.35,34.5,-1.36995,1.59389,10.5826
30419786,0.0213053,0.0127832,0.00532632,48.45,5.85,35.25,-1.36516,1.5388,10.6927
30442614,0.0191748,0.0106526,0.00852211,49.95,5.25,35.4,-1.2981,1.48611,10.3598
30454825,0.0245011,-0.00958738,0.00213053,48,4.35,34.8,-1.48731,1.68011,10.7287
30477614,0.0276969,-0.00639159,0.0138484,48,4.35,35.85,-1.37714,1.57712,10.6137
30489783,0.0181095,-0.0191748,0.00106526,47.7,5.1,34.2,-1.40109,1.70645,10.5969
30512615,0.0266316,-0.00532632,0.0138484,47.85,5.25,36,-1.28373,1.72561,10.6951
30525785,0.0372843,-0.0234358,0.00213053,49.05,5.1,35.25,-1.40348,1.5867,10.4365
30548614,0.0447411,-0.0191748,-0.00213053,47.85,5.25,35.4,-1.27894,1.75196,10.573
30560787,0.0884169,0.00319579,0.00852211,48.45,4.8,34.5,-1.36756,1.62263,10.5658
30583627,0.0798948,0.00213053,0.00213053,47.7,5.1,33.15,-1.32684,1.61305,10.4892
30596789,0.0894822,0.0138484,-0.00106526,48,5.85,34.5,-1.37714,1.56754,10.5898
30619614,0.128897,0.00852211,-0.00213053,47.85,5.25,35.7,-1.20948,1.63939,10.6137
30631789,0.137419,0.0117179,0.00745685,48.9,6,35.7,-1.35558,1.63939,10.5227
30654620,0.199204,0.02024,0.00426106,48.9,4.5,33.9,-1.25978,1.61544,10.5874
30667790,0.258859,0.0575243,0.00745685,48.6,6,35.4,-1.15679,1.62263,10.4892
30680788,0.318514,0.0862864,-0.0170442,47.25,5.1,34.5,-1.17595,1.79746,10.5275
30703614,0.372843,0.145941,-0.02024,48.9,5.7,35.4,-1.28373,1.75435,10.5131
30715789,0.412257,0.16192,-0.04048,48.15,6,34.35,-1.27176,1.93637,10.4077
30738614,0.447411,0.199204,-0.0340885,48,5.85,34.2,-1.36037,1.83818,10.4676
30750788,0.481499,0.219444,-0.0191748,48.75,6.15,35.85,-1.37714,1.88847,10.4173
30773621,0.533697,0.250337,-0.00639159,48,5.55,33.45,-1.41546,2.12318,10.4772
30785790,0.624245,0.298274,0.0138484,50.1,5.55,34.5,-1.62861,1.98667,10.3431
30808614,0.707336,0.317449,0.0170442,48.15,6.45,34.95,-1.36995,2.15911,10.1515
30820793,0.791491,0.327036,0.0276969,49.8,6.15,35.55,-1.45138,1.89087,10.1491
30843614,0.988565,0.306796,0.0735032,49.5,7.65,33.15,-1.49449,2.28365,10.3167
30855789,1.10042,0.333428,0.103331,49.5,8.1,32.7,-1.7292,2.33634,10.4964
30878614,1.16327,0.347276,0.165116,50.55,6.6,34.2,-1.53281,2.42975,10.6329
30891788,1.2176,0.318514,0.248207,49.65,7.95,33.6,-1.9711,2.85127,10.1898
30914614,1.17925,0.419714,0.229032,51,7.95,33,-2.05014,3.48356,10.3215
30926789,1.23038,0.488956,0.233293,49.65,8.25,32.25,-1.67172,3.73024,11.6675
30949620,1.26766,0.588026,0.280165,51.75,9,31.95,-1.77231,3.80209,11.0017
30962790,1.12918,0.583765,0.327036,50.1,9.15,32.4,-2.54112,3.83323,10.7215
30985614,1.02905,0.494283,0.325971,51.45,9.75,31.2,-2.44771,4.25954,11.8016
30997795,1.08444,0.499609,0.42291,52.05,12,31.2,-2.15552,3.84999,11.246
31020614,0.941694,0.358994,0.360059,51.9,12.45,30.6,-3.28836,3.38536,10.5275
31033788,0.786165,0.0468716,0.294013,51.3,11.85,30.6,-3.1734,2.03936,11.2556
31056654,0.586961,-0.2024,0.267381,52.05,13.8,30.45,-1.64298,1.30888,12.2663
31069796,0.511327,-0.197074,0.386691,50.85,13.95,30.3,-0.656235,1.98667,11.5693
31082787,-0.0415453,-0.254598,0.446346,50.4,14.25,31.5,-1.77471,0.144899,10.2497
31105614,0.00958738,-0.238619,0.465521,51.75,14.55,32.25,-2.27287,0.188009,11.6675
31117808,-0.191748,-0.221575,0.394148,50.55,13.2,33.15,-2.14354,-0.00598755,9.78743
31140614,-0.526241,-0.215183,0.317449,51.75,15.6,32.55,-1.9256,-0.101788,10.3359
31152789,-0.566721,-0.190682,0.295078,51.45,14.85,34.95,-2.32796,-0.152084,11.155
31175655,-0.956607,-0.24288,0.219444,51.45,14.85,33.6,-2.27527,0.0443079,11.2005
31188789,-1.19629,-0.28336,0.144876,50.7,14.55,34.65,-2.34233,0.192799,11.1119
31211614,-1.33158,-0.298274,0.0553937,50.55,15.9,36.6,-2.60099,0.367636,10.4245
31224789,-1.46474,-0.322775,-0.0671117,50.55,14.7,36.9,-2.49082,0.93765,11.0185
31247614,-1.49989,-0.288687,-0.11931,49.95,15.3,36.45,-2.19384,1.16997,10.7119
31259788,-1.55209,-0.245011,-0.14168,49.05,14.4,38.7,-2.45729,1.57473,10.6017
31282614,-1.60003,-0.194943,-0.181095,47.85,14.85,40.2,-3.35782,2.38185,12.3525
31294826,-1.69484,-0.153398,-0.308927,48.45,11.4,40.8,-3.80808,3.00216,12.0459
31317614,-1.84078,-0.109722,-0.476173,46.8,12,43.35,-3.82485,3.19376,11.2244
31329788,-1.73105,0.00639159,-0.611462,45.75,11.25,43.8,-3.43446,3.30393,10.8843
31352614,-1.62133,0.134223,-0.70627,45.6,9.9,45.3,-2.98659,3.268,10.6257
31365789,-1.5734,0.347276,-0.728641,44.85,9.6,45.3,-0.692161,3.30872,10.9801
31378790,-1.61601,0.386691,-0.609331,44.4,8.1,46.65,-0.840652,3.58654,12.0962
31401614,-1.60642,0.24075,-0.464455,45.6,5.55,49.2,-0.340093,3.37099,11.1861
31413802,-1.51481,0.129962,-0.269512,44.4,4.35,46.65,-0.402363,3.22489,10.573
31436615,-1.54463,0.0852212,-0.136354,44.4,4.05,49.5,-1.36995,3.31111,11.6651
31448786,-1.37952,0.0181095,-0.109722,45.9,2.85,50.85,-1.75076,2.80577,9.90239
31471614,-1.20481,-0.0287621,-0.118244,46.65,0.6,49.8,-2.05972,2.25491,9.08569
31483791,-0.983239,0.0340885,-0.131028,46.2,-0.3,51.3,-1.81782,2.91354,12.2088
31506614,-1.05568,0.152333,-0.193878,46.65,-0.3,50.85,-1.94955,2.58303,11.1526
31518786,-1.11427,0.166181,-0.271642,49.05,-0.6,51.6,-2.05493,2.29323,9.76108
31541627,-0.802144,0.106526,-0.312122,49.2,-1.95,51.45,-2.43573,2.52555,11.0185
31554789,-0.858603,-0.0394148,-0.36219,48.75,-4.35,52.35,-1.94715,2.39143,10.7406
31577614,-0.859668,-0.0798948,-0.316384,48.45,-3.3,51.3,-1.22625,2.08486,10.6496
31589788,-0.627441,-0.0937433,-0.198139,48.15,-5.25,52.2,-1.07297,1.46216,9.38986
31612620,-0.484695,-0.0458064,-0.0649811,49.2,-6,52.2,-0.979563,2.28126,13.6841
31624793,-0.922519,0.092678,-0.052198,50.55,-6.6,52.35,-1.32684,1.8741,11.7825
31647614,-0.953412,0.126766,-0.0628506,49.05,-7.65,51.6,-1.42743,1.21787,9.71318
31659793,-0.679639,0.0894822,-0.0532632,50.4,-8.25,50.7,-1.47533,1.28253,9.0785
31682614,-0.557133,0.0426106,-0.04048,49.95,-9,50.4,-1.24062,1.2969,9.37788
31694789,-0.476173,-0.00532632,-0.0181095,50.85,-9.6,49.8,-1.47054,1.16518,8.81505
31717627,-0.193878,-0.0351537,0.0340885,52.35,-8.85,50.55,-1.21188,1.249,8.44382
31730789,-0.0170442,0.00106526,0.0894822,51.3,-10.35,50.25,-1.31726,2.02259,11.1047
31753614,-0.365386,0.0415453,0.0852212,50.85,-9.9,50.85,-0.948428,1.83339,10.4365
31766789,-0.300405,0.0958738,0.140615,51.75,-10.05,51.15,-1.51844,1.29451,9.01384
31789620,-0.00745685,0.0351537,0.129962,50.55,-9.9,51.3,-1.89207,1.6825,8.02948
31802790,0.0809601,-0.052198,0.0585895,52.35,-8.4,51.3,-2.32317,1.69208,8.2642
31815788,0.282295,-0.0585895,0.015979,52.35,-11.85,50.25,-2.5962,1.6825,8.74799
31838627,0.479369,-0.0266316,-0.0266316,52.95,-10.65,51.3,-2.51238,1.62742,8.46777
31851790,0.513457,0.0383495,-0.0990696,52.05,-10.5,50.7,-2.96982,1.46695,9.20783
31874614,0.986435,0.224771,-0.150202,52.95,-9.9,50.55,-3.42967,-0.300575,11.7442
31886788,0.637028,-0.072438,-0.294013,52.05,-9.3,51.15,-2.58183,-4.01765,12.5968
31909620,0.015979,-0.127832,-0.380299,51.9,-9.6,50.25,-1.16877,-3.29435,12.307
31921793,0.512392,-0.186421,-0.249272,51.75,-8.7,50.7,-1.02267,-1.27295,7.04034
31944614,0.697748,-0.267381,-0.120375,52.65,-8.85,50.85,-0.129331,-0.652643,10.7047
31956807,0.875647,-0.211988,0.0117179,53.7,-8.4,51.3,0.0694556,-1.00232,10.2904
31979614,1.07485,-0.0447411,0.072438,54.15,-7.35,50.55,-0.555645,0.156874,11.1861
31992789,0.166181,0.0980043,0.0117179,53.25,-9,51.15,-0.0694556,0.693358,14.7379
32015651,0.703074,0.26312,0.251402,54.3,-7.2,50.7,-0.519719,-0.97118,8.22827
32028789,0.526241,0.133158,0.273773,53.55,-6.45,51.45,-3.72905,-0.87538,10.4149
32041787,0.922519,0.04048,0.157659,53.55,-7.5,51.45,-4.58886,-0.492177,9.71558
32064614,0.885235,-0.192813,0.0127832,54.3,-6,50.1,-4.04519,-0.32692,8.4079
32077814,1.17499,-0.480434,-0.0585895,54.15,-6.15,50.55,-2.85007,-0.267045,9.38746
32100614,1.36247,-0.536893,0.036219,54.15,-4.8,50.85,-2.33035,2.68362,16.2516
32112788,0.62318,-0.540089,-0.0649811,53.55,-4.2,51.75,-1.3939,0.755629,9.11203
32135650,0.70627,-0.436758,0.0511327,53.85,-4.95,50.4,-0.61073,0.238304,13.6554
32148790,0.687096,-0.360059,0.0735032,54.45,-4.35,52.35,-0.996328,0.872985,9.88323
32171614,0.618919,-0.372843,0.0149137,53.7,-2.85,51.6,-1.45857,1.11728,11.0927
32184788,0.792557,-0.318514,0.0671117,54.15,-2.85,53.7,-0.804727,1.2993,11.6388
32207624,0.413323,-0.351537,0.0703075,53.7,-1.8,52.35,-0.752036,0.540077,10.7095
32220793,0.737163,-0.199204,0.0447411,53.25,-3,51.45,-0.704136,1.68969,12.671
32233788,0.156594,-0.056459,0.0660464,52.5,-2.4,53.25,-0.579595,1.66095,11.4783
32256658,0.518784,0.0479369,0.0958738,52.95,-1.05,52.65,-0.730481,1.72561,11.6484
32269796,0.136354,0.0713727,0.0298274,54.15,-0.6,53.4,-0.862207,1.97948,10.276
32292614,0.199204,0.0213053,0.0830906,52.05,-2.4,52.5,-1.67651,1.45976,11.6412
32304788,0.267381,0.0181095,0.0745685,54.3,-0.15,53.25,-1.33882,1.46455,10.4293
32328624,0.0820254,0.0106526,0.0490022,52.65,-1.8,54,-1.31487,1.36396,10.7933
32341793,0.273773,0.0681769,0.0798948,52.8,-0.45,52.2,-1.37235,1.45497,11.3825
32364614,0.100135,0.0479369,0.0170442,54.6,-0.9,51.75,-0.797542,1.90763,10.2377
32377793,0.106526,0.0639159,0.0415453,52.5,-0.45,52.5,-1.51605,1.63939,11.064
32390790,0.0916127,0.0607201,0.0394148,52.95,-0.6,52.65,-1.09452,1.70645,10.3934
32413614,0.0266316,0.0681769,0.0117179,52.95,0,53.4,-1.54239,1.55317,10.5395
32425789,0.117179,0.0809601,0.0117179,53.25,0.45,53.55,-1.07776,1.61784,10.8987
32448614,0.0916127,0.0756338,-0.0191748,53.85,0.9,54.3,-1.0083,1.94116,10.6065
32461788,0.0234358,0.0490022,0.0106526,52.35,0,52.65,-1.13045,1.67292,10.779
32484614,0.0213053,0.0127832,-0.0191748,54.75,-0.3,50.25,-0.790356,2.13995,10.7239
32496825,-0.02024,0.04048,0.0266316,53.7,0,53.4,-0.493374,1.443,10.5634
32519614,0.036219,-0.00852211,-0.0255663,54.15,0.3,52.65,-1.24062,1.89805,10.6425
32531783,-0.00106526,0.0553937,0.00106526,54.15,-0.6,52.95,-0.977168,1.74477,10.4724
32554653,0.00213053,0.0490022,0.00745685,54.15,1.05,52.95,-1.73878,1.7328,10.5802
32567790,0.0798948,-0.0191748,-0.0458064,53.25,0.45,52.8,-0.965193,1.99146,10.7502
32590614,-0.0181095,0.0607201,0.0575243,52.8,-0.15,51.45,-1.46336,1.46695,10.5059
32602788,-0.02024,-0.0372843,-0.0234358,53.85,0.9,52.2,-0.981958,1.96511,10.7359
32625627,-0.00106526,0.0308927,0.0649811,53.85,0.9,53.25,-1.09213,1.53401,10.6664
32638793,-0.0138484,-0.0213053,-0.0117179,54.45,-0.3,52.65,-1.2526,1.56036,10.2569
32661614,-0.02024,0.0394148,0.0106526,54.3,0.9,52.8,-1.06099,1.83099,10.8173
32674838,0.0596548,0.0553937,0.00639159,53.55,-0.45,51.75,-1.28373,1.5867,10.5778
32687789,0.0394148,0.0383495,-0.0234358,54.75,0.3,52.35,-1.14721,1.75196,10.4796
32710614,0.0223706,0.0468716,0.015979,53.55,-0.45,51.75,-1.29331,1.85255,10.7263
32723788,0.0372843,0.0415453,0.00532632,54.3,-0.15,53.25,-1.37235,1.72561,10.5874
32746634,0.0276969,0.0447411,0.00532632,54.15,0.3,52.95,-0.974773,1.8262,10.4772
32759789,0.0447411,0.0426106,-0.00213053,54.3,0.15,52.8,-1.29092,1.75914,10.6329
32782614,0.0308927,0.0671117,0.00639159,53.55,-0.15,53.25,-1.29092,1.64897,10.4556
32794828,0.0798948,0.0735032,-0.00852211,54.3,0.9,52.8,-1.31247,1.71603,10.5395
32817614,0.072438,0.100135,0.0191748,54.15,0.3,52.95,-1.32205,1.67771,10.4987
32829783,0.0479369,0.056459,-0.02024,53.25,0.45,53.55,-1.30529,1.45497,10.494
32852614,0.0191748,0.0841559,-0.0181095,54.75,-0.3,52.35,-0.962798,1.91003,10.573
32865791,0.0447411,0.0106526,0.00958738,54.75,0,52.35,-1.13045,1.7304,10.8077
32888614,0.00213053,-0.0181095,0.0170442,53.55,0.15,53.55,-1.22386,1.80704,10.4293
32900784,-0.0127832,-0.0298274,0.0149137,54.15,0.6,52.35,-1.31966,1.8262,10.688
32923628,0.0191748,-0.00958738,0.0106526,54.45,0,52.95,-1.24781,1.90045,10.6808
32936789,-0.0298274,0.0117179,0.00106526,53.85,0.9,51.75,-1.10171,1.84057,10.5562
32949786,-0.0223706,0.0458064,-0.0149137,53.7,1.05,52.35,-1.34361,1.77591,10.6736
32972614,-0.0415453,0.0607201,0.00106526,54.3,0.9,52.5,-1.1065,1.8741,10.3503
32985792,0.00639159,0.0479369,-0.00639159,53.55,0.15,52.8,-1.23583,1.75914,10.7574
33008614,0.0415453,0.0511327,0.00852211,54.6,0.9,52.5,-1.15919,1.86931,10.5993
33021787,-0.0245011,0.0372843,-0.00213053,54.9,0.45,53.25,-1.3939,1.67053,10.3934
33044634,-0.00958738,0.0308927,0.00319579,53.25,1.2,52.5,-1.42743,1.85734,10.755
33057788,0,0.0213053,0.00532632,53.85,0.45,51.75,-1.42504,1.81183,10.5083
33080614,-0.0511327,0.0298274,0.00213053,54.6,0.45,51.45,-1.25978,1.85494,10.4748
33093801,-0.0213053,0.0234358,0.00532632,53.55,0.15,53.25,-1.53281,1.65137,10.6209
33106790,-0.0117179,-0.0213053,-0.0223706,54.75,1.8,52.65,-0.924478,1.88608,10.5275
33129614,-0.0245011,0.0351537,0.0181095,54.45,-0.3,51.6,-1.50407,1.70406,10.5778
33141789,-0.0127832,-0.00532632,-0.00639159,54.45,0.6,53.4,-1.2023,1.85255,10.6616
33164631,-0.0607201,0.0213053,0.0213053,54.45,1.05,51.6,-1.50168,1.6849,10.5969
33177787,-0.0191748,-0.0319579,-0.00319579,54.15,0.3,51.9,-1.32445,1.87889,10.6808
33200614,-0.0852212,-0.0703075,-0.00213053,52.8,-0.45,51.45,-1.18793,1.8765,10.6257
33212793,-0.0830906,-0.105461,0.00213053,54.15,0.3,52.65,-1.31487,1.66574,10.6425
33235620,-0.104396,-0.120375,0,54.6,1.2,51.75,-0.972378,1.71603,10.5131
33247785,-0.0777643,-0.0543285,0.0127832,53.85,0.45,52.8,-0.869392,1.62263,10.5443
33270614,-0.0383495,-0.0127832,0.0468716,53.85,0.15,52.5,-1.37714,1.52683,10.4293
33283792,-0.0106526,-0.0703075,0.00426106,53.7,0.3,51.9,-0.850232,1.77351,10.664
33306614,-0.0117179,-0.0639159,-0.00639159,53.4,-0.3,52.95,-1.14482,1.74956,10.6089
33318786,-0.0191748,-0.0617853,-0.00639159,54.45,0,52.65,-1.11847,1.73998,10.5874
33341631,-0.0383495,-0.0330232,0.0245011,54.6,0.9,52.5,-1.57832,1.35199,10.4461
33354788,0.0511327,-0.0415453,0.0127832,54.9,0.15,52.8,-1.0586,1.73998,10.6904
33377614,0.0660464,-0.0276969,0.0138484,54.9,-0.15,52.5,-1.20709,1.61065,10.2928
33389785,0.0894822,-0.0245011,0.00639159,53.85,1.65,53.55,-1.15919,1.78309,10.7742
33403090,0.16192,0,0.015979,54.15,-1.05,52.35,-0.946033,1.81902,10.6808
33425614,0.142745,0.00852211,0.00426106,53.85,0.15,53.25,-1.07776,1.70645,10.3862
33437788,0.205596,0.0372843,0.0170442,52.35,1.35,52.95,-1.12087,1.64897,10.664
33460631,0.296144,0.0735032,0.0276969,54.9,0.45,52.8,-1.23104,1.61065,10.5466
33473787,0.349407,0.0809601,0.0181095,54.6,-0.45,53.25,-0.969983,1.66813,10.355
33496614,0.42504,0.124636,0.0458064,53.25,0.9,52.5,-0.991538,1.79267,10.4413
33509785,0.558199,0.186421,0.0873517,53.85,0.9,52.2,-1.2526,1.70166,10.209
33532620,0.58483,0.259925,0.103331,54.3,1.65,52.8,-1.25499,2.09684,10.4485
33545789,0.705205,0.249272,0.0607201,53.7,2.55,51.6,-1.14242,2.13277,10.173
33568614,0.70414,0.290817,0.0745685,53.7,1.35,51.6,-1.38672,2.09444,10.3191
33580793,0.681769,0.316384,0.0468716,54.9,3,52.5,-0.143701,3.84041,10.5993
33603614,0.862864,0.318514,0.0745685,55.5,3.6,52.65,-0.974773,2.23336,10.3215
33616789,0.917193,0.340885,0.115049,54.45,5.1,51.9,-1.20709,1.99625,10.0581
33629785,1.24849,0.389887,0.185356,55.8,5.1,51.3,-1.49689,2.48244,11.2316
33652620,1.23358,0.466586,0.208792,55.2,6.15,50.25,-1.65496,2.37706,9.99819
33664788,1.34117,0.529436,0.22051,54.75,6.6,49.2,-1.24302,3.08838,11.9214
33687614,1.42532,0.682835,0.318514,56.55,7.35,49.8,-1.54239,3.86915,11.0975
33700795,1.39976,0.693487,0.406931,58.05,8.85,49.8,-2.12917,3.95298,11.6124
33723614,1.25701,0.433563,0.34195,57.3,8.85,49.2,-2.82133,3.72545,10.9825
33735788,1.32412,0.15979,0.265251,57.45,10.5,48,-2.36388,4.18769,11.6148
33758631,1.3923,0.0298274,0.210922,58.95,10.5,48.6,-1.83219,3.85478,10.4006
33771788,1.26447,0.00213053,0.144876,58.05,12.45,47.4,-1.5855,3.20334,11.6819
33794614,1.17179,-0.00106526,0.174703,57.45,14.55,48.6,-0.941243,1.95074,12.9297
33806785,0.590156,-0.165116,0.264186,58.95,14.55,47.55,0.828677,0.0538879,12.4267
33829620,0.252468,-0.168312,0.520914,59.55,16.35,47.25,0.229922,-0.0419128,12.7165
33842789,-0.148072,-0.205596,0.606135,57.15,16.35,48,-0.59636,-0.652643,9.73234
33865614,-0.451672,-0.238619,0.583765,57.45,15.6,48,-1.26936,-0.801134,11.3107
33877793,-0.550742,-0.211988,0.543285,57.75,16.8,48,-0.936453,-1.04782,10.8293
33900614,-0.873517,-0.209857,0.484695,58.35,16.65,48.45,-1.2526,-1.09572,9.74911
33912789,-1.11427,-0.276969,0.406931,59.1,16.95,49.5,-1.99505,-0.774789,11.4496
33935648,-1.23464,-0.273773,0.339819,60.6,16.8,49.05,-1.91123,-0.30297,10.9538
33948787,-1.60216,-0.262055,0.234358,60.45,16.2,49.5,-2.79738,0.120948,11.3059
33961787,-1.69377,-0.250337,0.0873517,61.2,16.2,48.75,-3.35782,0.504152,12.3429
33984614,-1.926,-0.2024,-0.126766,62.4,14.85,49.65,-3.89191,1.07417,12.1465
33996795,-2.09218,-0.110787,-0.332363,63,14.7,49.2,-2.99138,1.94835,12.0268
34019614,-1.99631,0.0500674,-0.396278,62.25,13.95,49.5,-2.886,2.13756,11.6029
34031788,-2.02294,0.128897,-0.393083,64.05,11.85,49.2,-1.94955,3.06443,11.8879
34054644,-1.97393,0.194943,-0.276969,65.25,10.5,48.6,-1.3005,3.31351,12.2926
34067789,-1.97287,0.224771,-0.113983,66.6,10.65,49.2,-0.809517,3.44045,11.7322
34090614,-1.94304,0.251402,0.0479369,65.1,8.85,47.1,-1.20469,3.63444,12.0962
34102785,-1.84291,0.235423,0.0809601,66.75,9,48,-2.43094,4.16614,11.8903
34125625,-1.86208,0.266316,-0.0287621,67.5,9.3,47.55,-2.62734,4.22122,10.3311
34138789,-1.68312,0.32171,-0.147006,66.6,8.1,46.65,-2.11001,3.83083,9.9958
34161614,-1.45302,0.393083,-0.177899,66.75,8.7,48.3,-0.864602,3.46919,10.7718
34173823,-1.40295,0.292948,-0.18003,67.95,8.1,47.7,-1.45617,3.45482,10.4628
34196615,-1.25062,0.0394148,-0.24075,66.9,6.6,47.1,-1.81542,2.88959,10.1251
34208783,-0.931041,-0.0671117,-0.3036,67.8,5.7,46.2,-1.51365,3.03808,11.4615
34231614,-1.19416,0.0138484,-0.363255,66.6,5.85,46.65,-1.16877,2.84888,10.549
34243783,-1.03544,0.102265,-0.349407,66.75,4.95,46.95,-1.17835,2.07768,9.72037
34266614,-0.707336,0.186421,-0.280165,65.85,4.05,47.1,-1.53042,1.94356,9.78264
34278788,-0.711597,0.198139,-0.290817,65.55,4.35,46.35,-1.54479,2.43933,11.2436
34301675,-0.736098,0.16192,-0.302535,63.75,4.8,47.4,-1.6813,2.07289,10.8891
34314795,-0.624245,0.0703075,-0.296144,63.15,2.7,46.2,-1.5376,1.7304,9.82096
34327783,-0.420779,0.0415453,-0.291882,61.5,2.55,47.1,-1.60706,2.09205,12.386
34350615,-0.860734,0.0596548,-0.376038,61.5,3.6,47.1,-1.61903,2.15432,12.1058
34362785,-0.971521,-0.0383495,-0.403735,60.9,3.6,47.4,-1.42983,1.23703,10.3287
34385614,-0.659399,-0.00639159,-0.243946,60.3,3,47.25,-0.59157,1.09333,9.9958
34397772,-0.674312,0.0607201,-0.0671117,59.85,1.35,47.1,-0.713716,1.17715,9.47608
34420674,-0.547546,0.167247,0.0596548,59.25,1.65,47.25,-1.33403,0.571212,9.92634
34433780,-0.429302,0.167247,0.0479369,59.1,2.1,49.2,-2.13636,0.202379,9.25094
34456617,-0.278034,0.104396,-0.056459,59.1,1.8,49.2,-2.08127,0.475411,10.1323
34468758,-0.431432,0.107592,-0.205596,58.65,2.55,48.45,-2.28006,0.305365,10.5395
34491613,-0.373908,0.0117179,-0.252468,58.05,2.85,48.45,-1.97829,0.32692,10.4556
34504781,-0.302535,0.0138484,-0.201335,58.65,2.85,48.75,-1.3939,0.451461,9.52637
34527615,-0.209857,0.112918,-0.151268,58.2,1.95,47.55,-1.5879,0.693358,9.61738
34539785,-0.170442,0.116114,-0.183225,56.7,2.4,49.05,-2.03098,0.655038,9.54793
34562621,-0.12144,0.0319579,-0.241815,56.25,2.1,48.15,-1.66933,0.583187,9.33238
34574765,-0.00426106,0.00639159,-0.223706,56.4,1.65,50.7,-1.21906,0.473016,9.55511
34597674,0.00532632,-0.0117179,-0.129962,56.4,1.95,48.6,-0.969983,0.367636,10.0581
34610781,0.0276969,0.036219,0.0181095,57.3,2.55,49.8,-1.6813,0.228724,10.3742
34633617,0.0660464,0.0735032,0.0713727,58.05,3.3,48.75,-2.24413,-0.108973,9.24136
34645758,0.183225,0.0745685,0.0340885,57,1.8,50.55,-3.59971,-1.83578,8.85577
34668613,0.308927,-0.0170442,-0.155529,56.7,2.7,49.05,-2.53872,-3.83083,12.0435
34680779,-0.104396,-0.0213053,-0.289752,58.05,4.05,48.75,-1.37953,-3.76617,12.2998
34703615,0.199204,-0.052198,-0.224771,57.75,3.45,48.6,-0.385598,-2.41777,7.77801
34715840,0.383495,0.00426106,-0.143811,58.5,3.45,48,-0.493374,-2.13277,9.93353
34738621,0.437824,0.0788296,-0.036219,57,4.05,48.15,0.0455054,-1.88608,11.4951
34750761,0.388821,0.107592,0.0649811,57.6,5.1,48.75,0.476609,-1.76872,8.80068
34773705,0.670051,0.0713727,0.248207,57.6,3.3,47.1,0.241897,-2.22378,9.74192
34786793,0.519849,0.0777643,0.414388,57.15,4.5,46.5,-0.373623,-0.88017,13.0878
34799765,0.44528,0.107592,0.506001,58.65,6.6,48.45,-1.21428,-1.22745,9.86886
34822615,0.565655,0.113983,0.52198,58.5,6.45,46.95,-2.26808,-1.5891,9.94071
34834990,0.622114,0.0617853,0.467651,57.45,7.95,47.25,-3.63803,-1.41665,10.4389
34857612,0.573112,-0.0479369,0.335558,58.95,9.3,47.25,-3.77455,-0.91849,9.73953
34869771,0.679639,-0.129962,0.160855,59.1,9.15,47.1,-4.15775,-1.64897,9.04737
34892615,0.896953,-0.199204,0.0649811,58.95,10.8,45.45,-3.43925,-0.978366,9.39225
34905788,1.03011,-0.320645,0.0308927,59.4,12.15,47.1,-2.22258,0.0969983,11.7394
34928615,0.597613,-0.294013,-0.0617853,58.2,12,46.2,-3.07521,-0.118553,10.7622
34940761,0.844755,-0.253533,-0.172573,58.35,13.2,46.35,-1.79866,-0.202379,10.9131
34963678,0.839428,-0.217314,-0.134223,58.65,13.2,47.1,-0.122146,-0.0299377,11.064
34976779,0.628506,-0.193878,-0.00213053,58.65,13.95,46.05,-0.0718506,0.0778381,11.519
34999617,0.801079,-0.144876,0.0660464,60,14.55,45.45,-0.979563,0.132924,10.8341
35011766,0.667921,-0.126766,0.0639159,59.1,14.7,45,-1.6334,0.190404,10.8604
35034614,0.64342,-0.181095,0.0692422,59.25,16.35,44.4,-1.4897,0.652643,11.6172
35046777,0.618919,-0.24288,0.072438,57.6,16.65,45,-2.38065,0.362845,10.3215
35069615,0.641289,-0.318514,0.0138484,59.1,17.4,44.7,-2.93869,0.178429,10.6041
35081784,0.710531,-0.370712,-0.0383495,57.15,17.55,44.1,-1.65735,0.983156,11.7154
35104616,0.486826,-0.361125,-0.052198,57.15,18.6,43.8,-1.45617,0.755629,10.8029
35116761,0.600809,-0.368581,-0.0735032,58.2,20.1,44.85,-0.989143,1.17476,11.3873
35139751,0.470847,-0.339819,-0.00958738,58.5,21.15,44.1,-0.414338,0.674198,10.2425
35152795,0.543285,-0.214118,0.0106526,58.5,20.55,43.35,-0.914898,1.67053,12.7812
35165787,0.329167,-0.22264,-0.00958738,57.15,21.15,44.4,-0.289797,2.10163,11.0879
35188614,0.331297,-0.0884169,0.0181095,57.6,21,44.7,-1.32684,1.07896,11.337
35200792,0.273773,-0.0458064,-0.0298274,57.6,22.5,44.7,-0.265847,1.39749,11.1646
35223614,0.102265,0.0415453,0.00319579,58.05,22.95,43.2,-0.622705,1.6849,11.7418
35236788,0.160855,0.0245011,-0.0181095,58.35,22.5,43.2,-0.191602,2.39622,10.197
35259627,0,0.0138484,-0.0351537,57.45,23.4,43.05,-1.11129,1.37833,11.9908
35272788,0.136354,0.0575243,0.00213053,57.3,22.2,42.6,-2.19384,0.504152,9.19107
35295614,0.0234358,-0.00745685,-0.00106526,56.7,22.35,42.75,-0.431104,1.15799,11.1933
35307788,0.147006,0.0340885,0.00213053,57.3,22.2,42.15,-0.986748,1.33283,11.0448
35330620,0.0117179,0.0308927,-0.015979,58.05,21.75,42.6,-0.761616,1.47174,10.5562
35343789,0.0117179,0.0245011,0.0191748,58.2,22.35,41.25,-0.804727,0.791554,11.2604
35366614,0.0585895,0.00213053,0.0617853,57.3,22.5,41.55,-1.60945,1.17955,10.9011
35379793,0.0553937,-0.0436758,0.00639159,57.75,23.85,42.75,-0.500559,1.93877,10.379
35392789,0.181095,-0.122505,-0.0234358,58.95,23.4,42,-0.311353,1.31367,10.9562
35415614,-0.0873517,0.0117179,0.0234358,58.35,22.2,41.55,-2.67045,0.9616,9.64373
35428787,0.218379,-0.0692422,-0.0436758,58.05,22.5,43.2,0.419128,1.35438,11.4568
35451620,0.104396,0.148072,-0.00106526,57.75,23.1,42.3,-1.01788,1.89326,10.0221
35463791,0.0319579,0.185356,0.0213053,57.15,22.35,43.05,-3.08239,1.60347,11.0065
35486614,0.158724,0.0969391,0,57.3,23.7,42.6,-0.819097,1.97709,11.3202
35498787,0.0543285,0.0596548,0.00958738,57.75,23.4,42,-0.807122,1.09812,10.0509
35521614,0.0532632,0.152333,0.0607201,57.45,22.65,41.25,-2.47645,1.24661,11.1933
35533788,0.04048,0.0958738,0.0245011,57.75,22.35,42,-0.886157,1.18434,10.3071
35556663,-0.0458064,0.0458064,-0.00852211,58.65,23.25,41.55,-1.1065,1.24421,10.8796
35569789,0.142745,0.0447411,0.0372843,57.6,23.25,40.05,-0.857417,1.03106,11.0568
35592614,0.0894822,0.0372843,-0.0213053,58.65,23.7,40.5,-0.584385,1.99146,10.0413
35604788,0.0745685,0.0149137,-0.0756338,57.45,24.6,40.2,-1.31966,1.79267,10.9418
35628620,0.036219,0.0660464,-0.00958738,58.05,23.25,42.15,-0.313748,2.23815,10.7909
35640789,0.00745685,0.0990696,0.0394148,57.15,23.4,40.95,-1.55437,1.11249,10.3598
35654084,0.052198,0.0490022,0.0106526,57,22.95,41.55,-0.981958,1.45258,10.8724
35676653,0.0213053,0.015979,0.00319579,59.1,24,41.55,-1.08015,1.59868,10.6305
35689789,-0.0117179,0.0415453,0.0308927,59.25,22.65,42.3,-1.42743,1.21068,10.6281
35712614,-0.0138484,-0.0149137,-0.00639159,58.95,21.9,41.7,-1.1065,1.4909,10.7694
35724787,0.00958738,-0.00319579,0.02024,57.45,24.9,42,-1.09213,1.49329,10.743
35748620,-0.0106526,-0.0117179,0.00319579,58.35,23.25,40.8,-1.10889,1.51006,10.5179
35761790,-0.0319579,-0.0106526,-0.00319579,57.6,23.25,41.85,-1.29092,1.51245,10.7814
35784614,-0.00639159,-0.00745685,0.0127832,58.05,24.3,40.05,-1.14721,1.55317,10.7359
35796787,-0.0436758,-0.0276969,-0.00106526,58.05,24.75,41.55,-0.989143,1.44779,10.6951
35819614,-0.0585895,-0.0170442,0.00745685,58.2,22.65,40.95,-1.07536,1.4406,10.8652
35831788,-0.0266316,-0.00532632,0.00958738,57.45,23.4,40.65,-1.09692,1.27295,10.3982
35854643,-0.0756338,-0.0213053,0.00426106,58.35,24.75,40.5,-1.33163,1.23224,10.5347
35867789,0.0319579,-0.0138484,0.0191748,57.6,22.95,41.55,-1.26697,1.34241,10.8197
35880785,-0.02024,-0.02024,-0.00213053,59.4,23.7,42.15,-1.11608,1.42144,10.3048
35903614,-0.0276969,-0.0394148,0.0117179,57.75,23.85,42.75,-0.986748,1.45018,10.9083
35915827,0.00426106,-0.0106526,0.0138484,58.65,23.7,41.85,-1.12805,1.16039,10.4868
35938614,-0.0447411,-0.0372843,-0.0191748,58.05,24,42.15,-1.02746,1.33283,10.7622
35950785,0.0223706,-0.0191748,0.0266316,57.6,23.25,40.8,-1.21906,1.15799,10.6544
35973628,-0.00106526,-0.0223706,0.0170442,59.1,22.2,42.6,-1.14242,1.33762,10.4006
35986788,0.0245011,-0.0340885,0.0106526,58.35,23.25,41.55,-0.893342,1.36636,10.9873
36009614,0.0255663,-0.00319579,0.056459,58.2,22.65,41.25,-1.16877,1.27535,10.585
36021788,0.0106526,-0.0287621,0.00532632,57.45,26.1,40.95,-0.929268,1.43581,10.6592
36044630,0.0138484,0.00958738,0.0181095,58.2,23.4,42,-1.35558,1.25619,10.5227
36057785,-0.00532632,-0.0191748,0.00106526,57.45,23.4,41.7,-0.720901,1.19871,10.8556
36080614,0.00106526,0.00852211,0.0383495,58.35,24.75,41.55,-1.35798,1.1556,10.5107
36092796,0.0298274,-0.0170442,-0.00213053,57.75,24.6,42,-0.845442,1.52922,10.8101
36115620,-0.00426106,0.015979,0.0234358,57.6,24,40.8,-1.2526,1.2514,10.6113
36128784,0.0191748,0.0426106,0.0213053,57.3,23.25,40.8,-0.974773,1.60586,10.8652
36151614,0.0287621,0.0415453,0.0223706,58.05,24,41.55,-1.35319,1.07656,10.5371
36164793,0.0415453,0.0415453,0.015979,58.2,23.85,40.95,-0.876577,1.3951,10.7167
36177787,0.0820254,0.0340885,0.02024,58.2,23.4,40.65,-1.10171,1.46695,10.6999
36200614,0.0617853,0.0298274,0.0127832,57,24,41.85,-0.974773,1.43821,10.5922
36213802,0.118244,0.0372843,0.0181095,56.7,24.15,41.7,-1.15919,1.18194,10.7742
36236614,0.138484,0.036219,0.0138484,57.75,23.85,40.2,-0.902922,1.61544,10.47
36249784,0.168312,0.0245011,-0.0127832,57.6,23.7,41.55,-1.14003,1.38312,10.5922
36272614,0.218379,0.0351537,-0.00106526,58.05,23.7,41.1,-1.02746,1.53401,10.7933
36285789,0.324906,0.0213053,-0.0287621,58.2,24.6,40.95,-1.3939,1.33762,10.4724
36308614,0.403735,0.0191748,-0.0330232,58.05,24,40.8,-0.859812,1.13644,10.4748
36321788,0.576308,0.110787,-0.0234358,58.05,25.05,39.75,-1.0107,1.48132,10.779
36334823,0.662594,0.206661,-0.0383495,56.4,24.15,39.9,-0.627495,1.443,10.173
36357614,0.841559,0.312122,0.0138484,58.5,24.9,40.95,-1.00351,1.49808,10.7478
36369783,0.961934,0.356864,0.0692422,58.05,25.5,39.45,-0.766406,1.7328,10.5395
36392614,0.938498,0.388821,0.125701,58.95,26.1,38.55,-1.09931,2.22617,10.8915
36405795,1.06953,0.380299,0.143811,58.5,27.45,38.85,-1.31247,1.5388,10.9993
36428614,1.15049,0.461259,0.188552,58.35,28.05,37.65,-1.31008,1.8765,10.767
36440787,1.08124,0.477238,0.28336,57.6,28.05,37.35,-0.203577,3.54583,11.9837
36463630,0.817058,0.437824,0.352602,59.25,29.4,37.05,-1.42743,2.93031,11.6627
36476787,0.921454,0.167247,0.299339,59.25,28.95,36,-3.93741,3.67276,11.1406
36499614,1.0919,-0.304666,0.136354,58.05,30.6,35.55,-2.45729,2.42975,10.4964
36511788,0.942759,-0.403735,0.152333,58.65,31.35,37.35,-0.934058,1.38791,11.428
36534621,0.953412,-0.299339,0.276969,58.05,31.35,37.95,-0.797542,0.825084,11.9334
36547787,0.64555,-0.294013,0.269512,57.15,32.4,37.5,-1.6813,-0.25986,11.3657
36570614,0.527306,-0.26312,0.247141,57.45,33.75,37.05,-1.26936,-0.379611,12.0914
36582795,0.287621,-0.18003,0.22264,57.3,34.8,38.4,-1.52802,-0.822689,11.3562
36605614,-0.0117179,-0.129962,0.13955,56.7,35.7,39.15,-1.49689,-0.94723,11.1574
36617787,-0.175769,-0.0820254,0.052198,57,35.55,39.45,-1.66454,-1.16997,10.8317
36631084,-0.332363,-0.0809601,-0.04048,56.1,38.25,42,-1.40827,-1.06698,10.6951
36653620,-0.511327,-0.0617853,-0.0990696,54.6,38.25,43.05,-1.1544,-0.954415,11.3059
36666787,-0.782969,-0.0532632,-0.11931,54.75,37.65,45,-0.948428,-0.662223,11.622
36689614,-0.960868,-0.0426106,-0.056459,55.8,38.4,47.1,-0.66342,-0.427511,11.9645
36701794,-1.1654,-0.036219,0.00852211,55.2,37.35,52.35,-1.07297,-0.0347278,11.3801
36724614,-1.31347,-0.0106526,-0.00958738,55.2,36.6,51.3,-1.82261,0.247885,11.6747
36737788,-1.40721,0.00319579,-0.0777643,54.6,37.2,54.9,-2.0214,0.499362,11.6699
36760630,-1.47646,0.036219,-0.157659,55.2,36.9,56.55,-2.05732,0.88975,11.2819
36773785,-1.46687,0.0798948,-0.22051,53.55,33.45,60.9,-2.06451,1.22505,11.4807
36796614,-1.59257,0.0948085,-0.306796,53.4,32.85,62.85,-2.02619,1.71843,12.5321
36808788,-1.65223,0.106526,-0.336624,52.65,30.3,65.25,-1.48491,1.91242,11.9453
36831620,-1.65862,0.110787,-0.319579,52.95,27.75,65.55,-1.52323,2.04175,10.6736
36843787,-1.52333,0.102265,-0.305731,51.75,24.15,69.6,-1.31726,2.39382,10.7263
36866614,-1.41148,0.0948085,-0.304666,51.45,23.1,69.9,-1.94476,2.27168,11.3538
36878795,-1.42745,0.0681769,-0.328101,51.6,20.7,71.1,-2.09564,2.52076,10.8556
36901614,-1.2911,0.0308927,-0.368581,51,19.35,70.35,-2.25371,2.70996,11.1167
36913787,-1.15794,-0.0255663,-0.429302,48.9,16.8,72.45,-2.30401,2.28126,10.2784
36936660,-1.05035,0.00958738,-0.482565,48,14.4,72.15,-1.95434,2.85846,12.592
36949787,-1.10148,0.106526,-0.529436,50.1,11.85,73.2,-1.2502,2.68122,11.6388
36962787,-1.12172,0.131028,-0.453803,47.25,13.2,72.6,-0.589175,2.07049,10.3143
36985614,-0.933172,0.0894822,-0.300405,46.95,9.6,72.6,0.0215552,2.08965,11.0927
36997820,-0.922519,0.076699,-0.0841559,46.35,9,73.05,0.0598755,2.04654,10.3503
37020614,-0.878843,0.0426106,0.056459,45.3,7.95,73.5,-0.380808,1.67771,9.66289
37033788,-0.577373,-0.0415453,0.198139,46.05,6.75,72,-0.414338,1.16518,9.32519
37056656,-0.593352,-0.0245011,0.302535,44.25,7.2,71.7,-0.622705,1.99625,14.2422
37069786,-0.864995,0.112918,0.318514,43.8,5.55,72.9,-0.900527,1.60347,11.6603
37092614,-0.974717,0.135289,0.262055,43.05,6.9,73.2,-1.23104,1.1556,9.3683
37104788,-0.778708,0.0862864,0.255663,43.35,6.15,73.65,-1.08734,1.26337,10.367
37128620,-0.631702,0.0383495,0.292948,41.85,4.5,74.1,-0.993933,1.16757,9.56469
37141787,-0.630637,-0.00426106,0.308927,43.2,4.5,73.5,-1.14721,1.0598,8.98749
37154787,-0.38243,-0.0490022,0.291882,41.55,3.6,73.95,-1.65256,0.963995,9.08329
37177630,-0.122505,-0.00213053,0.278034,41.1,3.75,74.55,-2.1627,2.37706,13.459
37190787,-0.697748,0.0862864,0.0798948,41.55,3.3,74.25,-2.51956,1.57233,10.1611
37213614,-0.632767,0.126766,-0.0660464,40.05,3.45,74.85,-2.46687,0.89454,8.7911
37225787,-0.157659,0.152333,-0.0788296,40.5,3.6,75.3,-1.98547,0.95202,8.51567
37248620,-0.120375,0.151268,-0.0894822,40.35,2.7,74.85,-1.6334,1.39031,9.23657
37261788,-0.104396,0.1012,-0.1012,39.9,1.35,73.95,-1.96631,0.805924,9.58146
37284614,0.126766,0.109722,-0.0852212,40.35,3,76.2,-2.05253,0.872985,9.7515
37296815,0.0149137,0.124636,-0.145941,39.45,1.8,75.75,-2.50998,1.56754,12.113
37319614,-0.164051,0.116114,-0.2024,39.6,3.45,75.9,-1.67412,0.973575,9.25094
37331788,0,0.173638,-0.174703,41.1,3,76.2,-1.51126,0.537682,8.09894
37354635,0.619984,0.0298274,-0.374973,40.5,3.6,75.75,-2.91234,-1.09093,6.9661
37367785,0.619984,0.02024,-0.381365,39.3,3,76.2,-0.778381,-1.34241,15.6241
37390614,0.290817,0.0138484,-0.419714,40.35,3.75,75.15,-1.48731,-3.7015,9.67007
37402788,0.243946,0.0234358,-0.322775,40.2,3.6,76.35,-0.102986,-2.983,9.39944
37425625,0.792557,0.120375,-0.185356,40.5,6.6,77.1,-0.431104,-1.3472,11.7394
37438787,0.467651,0.166181,-0.122505,41.1,4.95,74.85,0.124541,-1.14362,10.2928
37451787,0.494283,0.173638,0,39.9,5.1,75,-0.110171,-1.46695,11.1622
37474650,0.710531,0.16192,0.127832,39.15,6.6,75.3,-0.450264,-1.63939,10.3694
37487790,0.696683,0.120375,0.213053,41.1,8.7,75.6,-1.30289,-1.26098,9.39704
37510614,0.782969,0.036219,0.224771,42,8.4,75.75,-2.19623,-1.43581,9.46889
37522787,1.0919,-0.0234358,0.214118,39.6,10.8,74.1,-2.74469,-1.23463,8.18756
37545614,1.41467,-0.24075,0.2024,40.95,12.45,75.75,-3.51828,1.12925,12.3908
37557788,0.350472,-0.292948,0.0937433,41.55,11.4,75.3,-2.61536,1.9244,16.1079
37580614,0.62318,-0.211988,0.0468716,39.9,13.65,74.25,-1.80345,-0.118553,9.15754
37592801,0.435693,-0.2024,0.00745685,39.3,15.6,75.9,-0.960403,-0.0323328,12.1202
37615615,0.493217,-0.160855,0.0607201,39,15.3,74.85,-0.399968,0.00838257,11.2197
37627784,0.401605,-0.0905475,0.115049,37.65,16.65,74.25,-0.929268,-0.176034,10.2401
37650614,0.426106,-0.1012,0.0948085,39.3,16.8,74.85,-1.20469,-0.159269,9.87125
37662792,0.515588,-0.02024,0.0873517,39.15,16.65,75,-1.89446,0.872985,13.6602
37685614,0.203465,-0.0234358,0.0511327,38.25,17.85,73.5,-1.45138,0.168849,9.30124
37697784,0.367516,-0.00852211,0.0447411,37.05,17.7,73.2,-1.64059,-0.0419128,10.7718
37720630,0.450607,-0.0330232,0.0681769,39,19.05,74.55,-1.51844,0.0706531,10.2425
37733787,0.448476,-0.0980043,0.0713727,40.05,17.85,74.55,-1.8274,0.32692,10.2353
37756614,0.519849,-0.171508,0.0383495,38.4,19.5,73.65,-2.0669,0.458646,10.106
37768787,0.537959,-0.248207,0.0287621,37.35,20.25,73.95,-2.00703,0.549657,10.6544
37791620,0.531567,-0.285491,0.0149137,38.25,21.6,73.8,-1.18553,1.21308,11.8687
37803788,0.377104,-0.269512,0.0287621,37.5,20.55,75.6,-1.1999,1.249,10.7838
37826614,0.409062,-0.258859,0.00958738,36.15,21.15,75.15,-1.57353,0.734074,10.5922
37839795,0.528371,-0.203465,0.0255663,37.2,23.85,74.85,-1.03465,1.23463,10.8915
37852787,0.428236,-0.232228,-0.0298274,36.75,23.1,73.05,-0.974773,1.17955,10.6616
37875614,0.502805,-0.183225,-0.00426106,36.3,24.3,73.65,-1.60945,1.11728,11.4089
37887788,0.377104,-0.0756338,-0.0713727,35.7,23.85,72.75,-1.17835,1.43342,10.7167
37910620,0.116114,0.0106526,-0.0106526,35.7,24.9,72.75,-0.0622705,1.48132,13.5835
37923787,0.343015,0.0511327,0.00106526,35.85,24,73.65,-0.934058,1.3951,9.66528
37946614,0.00745685,0.0660464,-0.0106526,36.3,26.25,72.15,-1.10889,1.21547,11.3777
37958795,0.216249,0.04048,-0.00745685,36.3,25.05,73.2,-1.55197,1.51485,10.5059
37981614,0.122505,0.0969391,0.00852211,37.05,27,72.15,-0.962798,1.51245,10.6137
37993787,0.0617853,0.072438,-0.0149137,36.15,25.35,72.45,-1.0562,1.5891,11.2053
38016652,0.0756338,0.148072,0.0149137,37.35,25.5,71.85,-1.16637,1.3448,10.858
38029787,0.00852211,0.072438,-0.00106526,37.35,24.3,71.85,-0.704136,1.31367,10.6951
38052614,0.0553937,0.0468716,-0.02024,35.85,27,72.15,-1.59987,1.28732,10.9825
38064787,0.0532632,0.036219,-0.00106526,37.2,26.4,72,-1.56395,1.48132,10.4437
38088621,0.0383495,0.00958738,0.00639159,37.35,27.3,73.65,-1.40348,1.11488,10.8628
38101788,0.116114,0.0830906,0.0319579,37.5,25.65,72.45,-1.14482,1.17476,10.6616
38114787,-0.00852211,0.0628506,0,36.6,26.55,72.9,-1.4418,1.84776,10.6927
38137630,0.0596548,-0.0127832,-0.0266316,37.8,26.1,73.05,-1.4418,1.93398,11.3011
38150786,0.0490022,0.0372843,-0.00213053,37.05,27,71.1,-0.816702,2.1639,10.6616
38173614,-0.0426106,0.0351537,0,36.45,26.4,71.7,-1.41306,1.36875,10.482
38185787,0.00852211,0.0660464,0.0245011,36.15,26.1,72,-1.73878,0.86101,10.5706
38208620,0.153398,-0.0671117,-0.0458064,36.45,26.7,72.75,-0.402363,2.38664,10.937
38220788,-0.00426106,0.0426106,0.0820254,37.2,26.4,72.45,-1.65735,1.47653,10.4077
38243614,0.0213053,-0.0543285,-0.0468716,37.2,26.4,72.45,-0.785566,1.52922,11.1718
38255811,0.0905475,0.0149137,-0.00106526,36.75,27.45,72.75,-1.3005,1.18434,10.5514
38278614,-0.0149137,0.00319579,0.02024,36.75,27.15,72.45,-1.0562,1.57473,10.6377
38290788,0.0117179,0.00639159,-0.00319579,36.45,26.4,72.75,-1.20709,1.22026,10.87
38313622,-0.00213053,0.0117179,0.00319579,36.45,26.7,71.4,-1.02267,1.40707,10.5179
38326789,-0.0149137,0.00106526,0.0117179,36.6,25.5,72.15,-1.18314,1.32325,10.6975
38349614,0.00639159,-0.00745685,0.00745685,37.5,27.45,72,-1.23583,1.56036,10.7502
38361788,-0.015979,0,0.00319579,37.2,26.1,72.45,-1.09931,1.3472,10.5993
38384630,-0.0223706,0.00639159,0.00639159,36.3,28.05,71.55,-1.15919,1.30409,10.7263
38397786,-0.00213053,0.0138484,0.00106526,37.8,26.7,72.75,-1.18314,1.45258,10.6808
38411084,-0.0106526,-0.00319579,0.00319579,38.1,26.55,73.2,-1.17595,1.37354,10.4916
38433624,-0.00958738,0.0181095,0.0191748,37.05,27,72.15,-1.2023,1.2514,10.743
38446789,-0.00958738,0.00958738,0.00213053,37.65,26.55,71.85,-1.27176,1.35678,10.6257
38469614,-0.0351537,0.015979,0.0117179,36.6,27.3,72.9,-1.36756,1.35438,10.5658
38481787,0.00852211,0.0127832,0.00106526,36.15,27.45,70.95,-1.15919,1.27056,10.6712
38504630,-0.00639159,0.0234358,-0.00213053,36.3,27.3,72.9,-1.24062,1.46216,10.5466
38517787,-0.00426106,0.00639159,-0.00639159,38.25,27.15,73.5,-1.152,1.3448,10.6544
38540614,0.00213053,0.0223706,0.00319579,36.6,25.5,72.15,-1.31247,1.34959,10.561
38552792,0.00426106,0.0276969,0.0149137,36.6,26.55,72.15,-1.28613,1.32804,10.6688
38575621,0.0276969,0.00958738,0.00639159,36.3,27,72.15,-1.23104,1.32085,10.6305
38587784,0.0234358,-0.0223706,-0.00532632,35.85,26.55,72.15,-1.1041,1.56754,10.6065
38610614,0.00426106,0.00958738,0.00745685,37.65,27,72.15,-1.14721,1.3448,10.6353
38622792,0.0383495,-0.00532632,0,36.75,26.4,73.5,-1.14961,1.25858,10.7766
38645614,0.0191748,0.00213053,0.0149137,36.3,25.8,72.6,-1.18793,1.40947,10.573
38658784,-0.0223706,-0.00213053,0.02024,37.65,27.75,71.55,-1.37235,1.29211,10.6185
38681630,-0.0170442,-0.0308927,0.0117179,35.85,28.05,72.15,-1.14003,1.36396,10.7814
38694787,-0.0127832,-0.0287621,0.0181095,37.05,26.55,71.1,-1.1999,1.47653,10.6353
38707786,0.00852211,-0.036219,-0.00106526,37.2,26.7,72.45,-1.23823,1.36875,10.5562
38730614,0.015979,0.0213053,0.0319579,35.4,27.15,72.45,-1.1041,1.32325,10.561
38742795,0.015979,0.0117179,0.0138484,36.3,26.55,71.85,-1.21667,1.51245,10.5419
38765614,0.0191748,-0.00745685,0.0181095,35.85,27.3,71.1,-1.40827,1.25858,10.6951
38778787,0.0149137,-0.00426106,0.0234358,36.75,27.45,72,-1.16158,1.53162,10.6233
38801630,0.0266316,-0.00852211,0.0106526,35.7,26.4,72,-1.1999,1.30888,10.7239
38814787,0.0255663,-0.0117179,0.015979,37.35,27.75,72.15,-1.13524,1.29451,10.5586
38837614,0.0532632,-0.0117179,0.015979,36.3,26.55,72.6,-1.36037,1.27056,10.6472
38850787,0.0862864,-0.015979,0.0340885,37.2,26.4,71.7,-1.29331,1.35917,10.5946
38873621,0.0788296,-0.0340885,0.0234358,35.55,28.05,71.55,-1.21188,1.36157,10.5059
38886787,0.111853,-0.0426106,0.0426106,36.15,27.45,72.75,-1.11608,1.43821,10.7287
38899787,0.125701,-0.0458064,0.0415453,37.35,27.3,72.6,-1.10171,1.32085,10.6137
38922630,0.140615,-0.0426106,0.036219,36.15,27.9,72.45,-0.811912,1.54599,10.7838
38935787,0.137419,-0.0213053,0.0500674,36.15,27.45,72.45,-0.974773,1.25619,10.8173
38958614,0.314253,0.0149137,0.0458064,36.3,28.5,72.9,-0.802332,1.76872,10.8843
38971793,0.221575,0.0394148,0.0308927,37.65,28.8,73.2,-1.21667,1.40947,10.3287
38994621,0.306796,0.0553937,0.0213053,35.7,28.95,72.45,-1.23583,1.55078,10.9011
39006787,0.353668,0.0820254,0.00319579,37.5,28.2,71.7,-0.929268,1.45018,10.6017
39029614,0.379234,0.117179,-0.0117179,36.15,28.65,70.95,-0.847837,1.66813,10.6137
39041794,0.478304,0.168312,-0.0372843,36.15,30.15,71.4,-0.802332,1.39989,10.3646
39064614,0.610397,0.225836,-0.0223706,34.95,29.7,70.95,-1.16158,1.43821,10.4724
39076788,0.769121,0.296144,0.0447411,36.3,30.6,70.05,-1.22625,1.68729,10.2353
39099630,0.813862,0.307861,0.109722,37.05,32.1,71.55,-0.866997,1.88847,10.4413
39112785,0.969391,0.28123,0.184291,37.2,33,70.65,-1.40348,2.0681,10.4987
39135614,1.03544,0.313188,0.18216,37.5,31.65,68.55,-1.50407,2.13516,10.5898
39148788,1.11427,0.36219,0.24288,37.35,33.6,68.4,-1.54958,1.86931,10.458
39171620,1.23784,0.319579,0.272708,36.45,37.2,66.75,-1.89686,1.94595,11.3059
39183787,1.31773,0.38243,0.386691,35.85,36.6,67.05,-1.4921,1.89326,10.8077
39196787,1.26021,0.531567,0.549676,38.4,36.6,67.05,-1.32924,3.28237,12.1561
39219630,1.16966,0.632767,0.74462,38.55,41.25,66.75,-0.831072,4.4703,12.2399
39232787,1.04715,0.692422,0.956607,38.1,41.7,65.25,-3.97094,2.81774,10.8772
39255614,1.07805,0.300405,0.915062,37.5,42,64.65,-3.42248,2.66925,10.0533
39267787,1.14516,-0.0500674,0.812797,36.6,43.2,63.15,-2.09085,2.05373,11.9382
39290620,0.850081,-0.172573,0.829841,36.3,46.95,62.1,-0.974773,0.233514,11.0185
39303788,0.547546,-0.285491,0.844755,36.15,45.6,61.2,-1.56395,-0.638273,11.5669
39326614,0.357929,-0.318514,0.761664,35.25,46.65,61.35,-2.15791,-1.23942,12.0771
39338787,0.128897,-0.245011,0.576308,33.45,46.95,62.1,-2.1148,-1.35438,11.6675
39361614,-0.325971,-0.167247,0.32171,32.85,47.85,62.25,-2.24413,-1.61305,10.4221
39373788,-0.477238,-0.125701,0.0649811,31.05,49.35,63.3,-2.62255,-1.40228,11.4136
39396667,-0.650877,-0.103331,-0.186421,30.45,50.1,63.3,-2.41178,-0.602347,12.8028
39409786,-1.17179,-0.0948085,-0.410127,29.7,50.4,66.45,-1.61424,-0.480201,10.9634
39432614,-1.25595,-0.0862864,-0.50174,29.1,50.25,67.65,-1.73639,-0.0802332,11.4352
39444787,-1.28364,-0.100135,-0.592287,27.6,48.6,69.6,-1.83698,0.590372,11.7609
39468621,-1.47646,-0.0916127,-0.676443,26.85,50.4,72,-1.7316,0.985551,11.143
39480787,-1.57766,-0.106526,-0.752077,27.3,49.2,73.65,-1.95194,1.46934,11.4615
39493787,-1.54037,-0.106526,-0.781904,26.85,47.55,78.3,-1.75794,1.99864,11.9693
39516652,-1.66714,-0.0905475,-0.76486,25.95,46.65,81.6,-1.64059,2.34353,11.7346
39529787,-1.67992,-0.072438,-0.733967,25.2,45.45,84.15,-2.04295,2.34592,11.9693
39552614,-1.69377,-0.0532632,-0.696683,25.65,44.7,87.3,-1.81063,2.53273,11.44
39564787,-1.72466,-0.0415453,-0.661529,23.25,39,95.1,-2.18665,3.09556,11.7466
39588621,-1.65223,0.0330232,-0.613592,23.4,36.15,97.65,-1.51605,3.25124,11.1622
39601788,-1.56274,0.0788296,-0.541154,21.9,32.7,100.35,-1.16637,3.16741,10.4269
39615084,-1.35821,0.0671117,-0.447411,21.9,29.7,102.75,-1.27176,2.70278,10.07
39637630,-1.38484,0.0287621,-0.415453,22.35,23.25,107.85,-1.50886,2.6932,12.0986
39650787,-1.34436,0.0234358,-0.400539,22.95,19.35,110.1,-1.78668,2.28365,11.0664
39673614,-1.32412,-0.0479369,-0.421845,22.5,13.8,111.15,-1.88009,2.3076,11.1478
39685787,-1.29962,-0.0852212,-0.420779,22.5,11.55,112.2,-1.71483,2.59979,11.3586
39708620,-1.27832,-0.0298274,-0.409062,22.2,5.7,112.5,-1.46096,2.47525,10.6999
39720788,-1.20481,0.00958738,-0.374973,22.2,0.45,112.95,-1.13045,2.11839,9.96466
39743614,-1.0152,0.0340885,-0.298274,22.35,-3.6,112.65,-0.804727,1.36875,9.11682
39755828,-0.640224,0.0830906,-0.177899,22.8,-4.05,112.65,-0.677791,1.86213,10.6209
39778614,-0.784035,0.187487,-0.0937433,23.85,-11.4,112.65,-1.21667,2.33874,11.2771
39790788,-0.948085,0.148072,-0.140615,25.2,-12.45,112.65,-1.53281,2.14714,10.197
39813623,-0.64555,0.135289,-0.103331,24.45,-15.45,111.3,-0.835862,2.0657,8.20672
39826788,-0.325971,0.12144,-0.00852211,24.9,-16.95,111.75,-0.335303,2.12797,7.17925
39849614,0.0479369,-0.00639159,0.154463,25.2,-20.7,110.25,-0.471819,2.77224,9.74911
39861788,0.0830906,-0.199204,0.311057,25.8,-22.35,109.35,-0.771196,2.5974,10.7909
39884630,-0.334493,-0.254598,0.427171,24.75,-21.15,110.85,-0.0239502,3.39734,14.7116
39897785,-0.304666,0.0149137,0.545415,24.9,-22.95,111,-1.38672,2.6932,10.6784
39920614,-0.379234,0.0319579,0.496413,25.35,-24.6,110.1,-2.68003,2.34113,8.67854
39932789,-0.253533,-0.0170442,0.295078,26.4,-24.9,108.75,-3.06084,2.75068,8.22588
39955614,0.427171,-0.015979,0.12144,25.65,-27.3,108.15,-2.72553,2.17348,7.82351
39967787,0.295078,-0.0255663,-0.105461,26.1,-28.2,108.75,-2.8357,3.16023,8.65458
39990614,0.60507,-0.0276969,-0.215183,26.4,-27.15,108.3,-2.90755,3.08598,10.4987
40002795,0.684965,-0.0149137,-0.298274,26.1,-25.65,108.75,-1.29571,1.51964,8.71206
40025614,0.557133,0.0266316,-0.312122,25.8,-26.7,109.8,-1.1999,-0.520917,12.5728
40037787,0.543285,-0.0394148,-0.307861,25.2,-25.5,111,-1.21428,-1.78788,10.5826
40060664,0.472977,-0.0841559,-0.262055,24.3,-23.4,111.9,-0.838257,-1.93158,10.106
40073787,0.834102,-0.118244,-0.177899,24.3,-22.35,112.5,-0.979563,-1.03585,8.73841
40086787,1.00454,-0.140615,-0.143811,25.05,-22.65,111.15,-1.20709,-0.626298,9.62696
40109614,1.35076,-0.0692422,-0.103331,22.8,-21.75,113.4,-0.922083,0.370031,12.2088
40121795,0.954477,-0.0511327,-0.143811,22.35,-18.45,115.2,-0.759221,2.45849,15.3798
40144614,0.152333,-0.0415453,-0.0830906,22.5,-16.35,115.05,0.299377,1.249,12.4986
40156788,0.513457,0.0149137,0.0958738,22.8,-16.95,116.25,0.277822,0.171244,11.1741
40179630,0.290817,0.0149137,0.162985,22.95,-16.35,116.4,-1.16877,0.0299377,10.7862
40192786,0.331297,-0.0170442,0.116114,22.05,-15.45,115.5,-1.75555,-0.0514929,10.0868
40215614,0.482565,-0.0330232,0.0990696,22.35,-15.45,116.85,-1.57113,0.065863,10.2928
40227788,0.497478,-0.112918,0.137419,21.9,-14.85,118.5,-1.48252,0.379611,10.4101
40250620,0.468716,-0.211988,0.145941,23.25,-14.25,117.15,-1.55197,0.925675,11.7969
40262787,0.352602,-0.223706,0.118244,21.9,-13.05,118.2,-1.62622,0.496967,10.3766
40285614,0.435693,-0.257794,0.0905475,22.2,-12.75,117.45,-1.2981,0.678988,10.7383
40297795,0.459129,-0.272708,0.0745685,20.4,-10.8,117.75,-1.48012,0.87538,10.9155
40320614,0.430367,-0.252468,0.0735032,20.1,-10.8,117.45,-1.35079,1.16518,11.0041
40332787,0.351537,-0.255663,0.0245011,18.6,-10.05,118.5,-1.28613,1.16757,11.2939
40355614,0.356864,-0.211988,0.0298274,19.35,-9,119.85,-0.773591,0.925675,10.9586
40367788,0.320645,-0.181095,0.0106526,17.55,-9,118.8,-0.790356,1.27056,11.3705
40390614,0.241815,-0.108657,-0.00213053,16.8,-8.25,118.5,-0.493374,1.35438,11.7969
40402787,0.052198,-0.0415453,-0.0106526,16.8,-7.95,119.25,-0.467029,1.2011,11.5238
40425627,0.0916127,0.0149137,0.00319579,17.25,-7.2,118.8,-0.816702,0.959205,10.47
40438788,0.0607201,0.00532632,0.00745685,17.55,-7.5,119.85,-0.814307,0.93286,10.6808
40461614,0.0958738,0.0585895,0.0287621,18.3,-7.2,119.25,-0.816702,1.38552,11.3202
40473819,-0.0383495,0.0692422,0.00213053,17.1,-6.6,119.4,-0.962798,1.24421,10.6089
40496615,0.072438,0.0862864,0.0106526,17.55,-7.5,119.85,-0.852627,1.18673,10.7359
40508786,0.0138484,0.110787,-0.00106526,17.4,-7.35,118.95,-0.819097,1.10051,10.5347
40531621,0.0681769,0.150202,0.00958738,16.5,-7.2,119.55,-1.64777,0.621508,10.5993
40543792,0.0468716,0.135289,-0.015979,18.45,-7.65,120.45,-0.459844,1.35199,10.5562
40566614,0.0276969,0.107592,-0.0298274,18.75,-6.9,120.45,-1.28613,1.26577,11.1694
40578786,0.052198,0.104396,-0.0127832,18.15,-6.15,120.45,-0.953218,1.0574,10.3359
40601630,-0.0287621,0.0479369,-0.015979,19.35,-7.95,119.55,-0.665815,0.9616,10.4676
40614786,0.105461,0.111853,0.0127832,18.75,-6.15,118.35,-0.737666,1.37594,10.7191
40627785,0.00426106,0.0969391,0.0106526,18.15,-6.9,120.75,-0.948428,1.1053,10.6137
40650614,0.072438,0.100135,-0.0149137,18.6,-7.5,119.55,-1.3484,1.41905,10.5371
40662795,0.052198,0.0383495,-0.0468716,18.45,-6.15,120.75,-1.22865,1.69208,10.9394
40685614,0.133158,0.0798948,-0.0458064,18.3,-6.45,120.6,-1.22386,1.61305,10.6281
40697787,0.132093,0.128897,-0.0500674,19.5,-5.85,120,-0.979563,0.643063,9.60301
40720630,0.112918,0.131028,-0.00213053,19.35,-6,119.85,-1.16158,1.84536,12.3908
40733787,0.307861,0.235423,0.0255663,19.5,-5.55,120.75,-0.756826,1.2993,10.1682
40756614,-0.0798948,0.284426,0.0191748,20.25,-5.55,121.05,-0.706531,1.37594,10.8005
40768787,0.224771,0.256729,0.0447411,19.65,-4.95,120.3,-1.19272,1.39989,11.2125
40791620,0.0127832,0.175769,-0.0340885,20.55,-5.55,121.5,-1.31487,1.43581,9.78264
40803788,0.0884169,0.194943,-0.0383495,21.3,-5.1,120.75,-1.54239,1.25379,11.4544
40826614,0.204531,0.230097,-0.0458064,22.05,-4.35,118.95,-0.826282,1.28493,10.3598
40838794,-0.0511327,0.245011,-0.0394148,22.95,-3.45,120.9,-1.2526,1.41426,11.0736
40861614,0.129962,0.22264,-0.0213053,22.2,-4.2,119.55,-2.04056,1.46455,11.4184
40873788,0.076699,0.233293,-0.0223706,23.1,-4.05,120.75,-1.24302,1.83578,10.5874
40896652,0.00213053,0.18216,-0.0372843,23.25,-4.5,121.95,-2.12678,1.4909,10.3191
40909785,-0.0713727,0.0980043,0.0149137,24.15,-5.1,120.45,-1.52563,1.46455,10.688
40932614,0.0255663,0.052198,0.015979,24.9,-4.8,120.45,-1.96631,1.08614,10.1132
40944788,-0.0735032,0.0170442,-0.0181095,23.25,-3,119.55,-1.34121,1.42144,10.4077
40968621,0.0276969,0.0330232,0.0127832,23.55,-4.5,118.8,-1.79387,1.3448,10.9011
40981787,0.0820254,0,0,24.9,-3.6,120,-1.45378,1.44779,10.2401
40994787,-0.0777643,-0.00426106,-0.015979,24.15,-4.35,120.45,-1.55437,1.33522,10.5107
41017630,0.0639159,0.00958738,0.00745685,22.95,-4.2,120.6,-1.65017,1.42863,11.0376
41030787,0.0213053,-0.0245011,0.00532632,24.3,-3.45,119.85,-1.4921,1.39989,10.1155
41053614,-0.0575243,-0.0703075,-0.00213053,24.45,-4.35,121.05,-1.59508,1.44779,10.5778
41065787,0.0745685,-0.0575243,0.0255663,24.15,-3.6,120.75,-1.5855,1.52922,10.8484
41088620,0.00106526,-0.0788296,-0.0149137,24.9,-4.35,121.05,-1.52084,1.25619,9.91676
41100788,-0.0415453,-0.109722,-0.0234358,23.1,-4.35,121.05,-1.59029,1.51724,10.7694
41123614,0.11931,-0.0894822,-0.015979,22.95,-2.7,120.3,-1.4442,1.51006,10.7191
41135827,0.00745685,-0.0841559,-0.0319579,23.1,-2.85,120,-1.43701,1.49329,10.3982
41158614,-0.00852211,-0.0862864,-0.0426106,22.95,-3.75,120.3,-1.34361,1.443,11.0496
41170783,-0.00532632,-0.0660464,-0.0351537,21.3,-3.3,120.45,-1.32684,1.36157,10.5634
41193622,-0.0543285,-0.0543285,-0.0255663,23.4,-2.85,120,-1.4897,1.49808,10.6832
41206788,0.0149137,-0.0628506,-0.0308927,22.2,-4.2,120.6,-1.21667,1.77591,10.7933
41229614,-0.0340885,-0.0298274,-0.00639159,22.35,-3.6,121.05,-1.59748,1.26098,10.3215
41241788,-0.0191748,-0.0500674,-0.0223706,22.8,-2.55,121.5,-1.51126,1.50048,10.7454
41264630,0.00106526,-0.0170442,-0.00532632,22.2,-3.45,120.6,-1.49928,1.43102,10.6999
41277786,0.00213053,-0.0394148,-0.0117179,22.2,-3.75,120.9,-1.346,1.39989,10.5155
41290779,-0.00958738,-0.0191748,-0.00106526,21.9,-1.95,121.35,-1.36516,1.45018,10.7742
41313621,0.00532632,0.00213053,-0.00213053,23.1,-4.35,120,-1.38672,1.37833,10.4916
41326789,-0.00532632,-0.00958738,-0.0149137,22.35,-2.85,120.75,-1.35798,1.39749,10.6089
41349614,0.00319579,-0.00213053,0.0127832,21,-3.3,121.05,-1.16637,1.40707,10.6137
41361787,-0.00532632,-0.00639159,0.00958738,21.3,-5.1,121.05,-1.40109,1.43581,10.6784
41384630,-0.02024,0.00639159,0.0213053,21.15,-4.2,119.85,-1.28613,1.38791,10.6664
41397787,0.0138484,-0.04048,-0.00319579,21.15,-3,119.55,-1.03944,1.90045,10.6544
41420614,0.00106526,-0.0479369,0.0127832,21.45,-3,120.9,-1.36995,1.57952,10.573
41432796,-0.0436758,0.0213053,0.0458064,21.9,-4.2,120.3,-1.52084,0.657433,10.458
41455614,0.0500674,0.00852211,0.0308927,22.05,-3.3,121.05,-1.88488,1.33043,10.7909
41467788,0.0713727,-0.0543285,-0.02024,22.2,-5.7,121.95,-1.46575,1.25858,10.4125
41490614,0.0415453,-0.0106526,0.0191748,20.55,-4.8,120.45,-0.972378,1.56515,10.6353
41502794,0.076699,0.0276969,0.0628506,21.15,-3.75,120.6,-1.83698,1.26577,10.5299
41525614,0.113983,-0.0511327,-0.0138484,21.9,-2.7,119.55,-0.967588,1.52683,10.8317
41537788,0.0841559,0.0213053,0.0308927,21,-2.85,121.5,-1.49449,1.28253,10.5514
41560630,0.107592,0.0127832,0.0245011,21.3,-2.1,120.45,-1.28852,1.28732,10.6041
41573785,0.147006,-0.0106526,0.00958738,22.2,-2.4,121.35,-1.21188,1.46455,10.6496
41586780,0.137419,0.0149137,0.0447411,21.3,-2.55,120.75,-1.47773,1.40707,10.5682
41609614,0.192813,-0.0255663,0.0191748,20.4,-2.4,120.9,-1.21188,1.45018,10.6832
41621791,0.178964,0.00639159,0.0266316,21.3,-1.35,121.05,-1.13524,1.52204,10.4724
41644614,0.203465,0.0245011,0.0223706,21.45,-1.95,120.9,-1.31726,1.56994,10.7191
41656782,0.268447,0.0511327,0.0213053,21.9,-1.95,121.35,-1.2981,1.62023,10.5706
41679630,0.355798,0.0607201,0.0841559,22.05,-1.35,120.75,-1.34361,0.712518,10.3095
41692787,0.486826,0.105461,0.13955,21.3,-0.6,121.5,-0.905317,1.64418,10.5658
41715614,0.383495,0.145941,0.106526,21.9,-0.45,120.3,-1.4921,1.88847,10.7143
41727787,0.512392,0.181095,0.0894822,22.05,0.6,121.8,-0.981958,1.75675,10.7095
41750620,0.54435,0.271642,0.158724,21.15,1.65,120.6,-1.43701,2.13037,11.6316
41763788,0.385626,0.335558,0.145941,22.35,3.3,121.8,-0.376018,1.72322,11.6364
41786614,0.530502,0.608266,0.225836,22.8,3.6,121.05,-0.847837,1.67532,11.7897
41798795,0.409062,0.74675,0.346211,24.45,4.8,121.05,-0.186812,1.99864,11.4065
41821614,0.420779,0.728641,0.475108,24.45,5.1,121.05,-1.98787,1.61784,9.87604
41834788,0.528371,0.611462,0.497478,27.15,6.45,119.85,-1.49689,1.69208,10.8149
41857630,0.742489,0.60294,0.574178,27.6,6.45,120.9,-3.20214,1.32325,10.6808
41870786,0.628506,0.508131,0.661529,28.5,8.85,120,-2.09564,1.47174,10.2856
41883780,0.674312,0.292948,0.711597,30.6,8.1,118.95,-3.60211,0.528102,11.4544
41906614,0.741424,-0.0628506,0.527306,31.35,12.15,119.4,-3.62845,-0.449066,12.0004
41918791,0.298274,-0.24075,0.494283,30.9,9.9,118.35,-1.14961,-2.37706,12.0843
41941614,0.327036,-0.28336,0.532632,30.6,12.15,119.4,-0.802332,-2.03696,10.2137
41953782,0.308927,-0.264186,0.570982,31.05,12.3,119.25,-1.95194,-2.39382,10.743
41976653,0.215183,-0.273773,0.491087,30.45,10.05,118.5,-1.84177,-2.13756,11.6388
41989787,-0.111853,-0.248207,0.383495,30.9,12.15,117.6,-2.29922,-2.23096,12.0435
42012614,-0.20027,-0.234358,0.262055,30.75,9.75,117.75,-2.14115,-2.14234,11.7274
42024787,-0.44315,-0.170442,0.173638,30.75,7.5,117.75,-1.86572,-1.93877,11.9022
42048621,-0.749946,-0.153398,0.0969391,30.9,6.9,117.3,-1.79147,-1.75196,11.8328
42060788,-0.909736,-0.152333,0.056459,30.9,4.35,117.3,-1.7771,-1.58431,11.3442
42083614,-1.00454,-0.128897,0.0415453,33.45,-1.05,117.3,-1.88728,-1.00471,11.7274
42095836,-1.11853,-0.0873517,-0.00639159,33,-4.8,116.25,-2.17947,-0.458646,12.022
