timestamp,gyro_x,gyro_y,gyro_z,mag_x,mag_y,mag_z,accel_x,accel_y,accel_z
11864203,0.0276969,0.0330232,0.0117179,20.7,21.6,29.85,-0.174836,0.484991,10.1843
11886203,0.00958738,0.0287621,0.00745685,20.4,20.85,30.15,-0.294587,0.386796,10.1963
11898379,-0.0117179,0.00532632,0.0234358,21.3,21.45,30,-0.253872,0.35566,10.1484
11921217,0.0117179,0.00426106,0.015979,21,21.45,30.3,-0.323328,0.477806,10.2131
11934377,0.0213053,0.015979,0.02024,19.65,21.6,30.9,-0.155676,0.477806,10.2394
11947382,0.00426106,0.015979,0.015979,20.4,20.1,29.85,-0.0886157,0.530497,10.17
11970203,0.0191748,0.0234358,0.0149137,21,20.25,30,-0.0934058,0.487386,10.2083
11982378,0.0213053,0.0298274,0.0149137,20.4,20.85,29.85,0.00239502,0.408351,10.1436
12005203,0.015979,0.0149137,0.00745685,20.55,18.75,29.25,-0.119751,0.520917,10.2729
12017382,0.015979,0.0117179,0.0138484,22.05,20.7,30.3,-0.165256,0.482596,10.2849
12040217,0.015979,0.00852211,0.00852211,20.25,19.95,29.55,-0.143701,0.540077,10.1867
12053377,0.00745685,-0.00213053,0.0138484,20.25,21,30,-0.155676,0.506547,10.2658
12076203,0.0266316,-0.00213053,0.0117179,19.5,21,30.6,-0.244292,0.501757,10.2322
12088379,-0.00319579,-0.00213053,0.00958738,20.55,21,28.95,-0.251477,0.453856,10.2035
12111209,0.00745685,-0.00639159,0.0106526,20.55,20.25,30.3,-0.249082,0.595162,10.2777
12123379,0.00106526,0.00106526,0.0117179,20.55,19.5,29.55,-0.275427,0.530497,10.1532
12146203,-0.00852211,0.00745685,0.00745685,18.6,20.55,29.85,-0.316143,0.576002,10.2203
12158385,-0.00213053,0.00106526,0.0138484,20.25,21,29.55,-0.210762,0.547262,10.1891
12181203,-0.00213053,0.0138484,0.015979,20.7,21.9,30.9,-0.146096,0.499362,10.1891
12193382,-0.00106526,0.0181095,0.0106526,20.1,21.6,30.15,-0.131726,0.604742,10.2298
12216203,-0.0117179,0.00852211,0.00639159,21.3,21.75,30,-0.114961,0.535287,10.2155
12228379,-0.00213053,0.0127832,0.00532632,21.3,21.45,29.55,-0.100591,0.537682,10.1676
12251203,-0.0106526,0.00958738,0.00639159,20.7,21.6,31.2,-0.138911,0.540077,10.2753
12263379,0.00106526,0.0191748,0,20.1,21.9,29.85,-0.162861,0.573607,10.1532
12287214,-0.0106526,0.0213053,0.00745685,21,21,30.3,-0.134121,0.552052,10.249
12300379,-0.0138484,0.0149137,0.00745685,20.7,21.6,29.85,-0.170046,0.571212,10.1915
12313382,0,0.0191748,0.00426106,21.3,21,30,-0.150886,0.506547,10.2083
12336217,-0.015979,0.0170442,0.00852211,20.4,22.35,29.85,-0.172441,0.513732,10.1915
12349377,-0.00319579,0.0170442,0.0149137,22.05,20.7,29.55,-0.0910107,0.499362,10.2682
12372203,-0.0117179,0.0255663,0.00745685,20.4,21.15,30.45,-0.119751,0.609532,10.237
12384379,0.00426106,0.0319579,0.0106526,21.15,21.15,31.2,-0.138911,0.511337,10.2155
12407209,0.00532632,0.0511327,0.0127832,21.6,22.2,29.25,-0.100591,0.506547,10.1987
12419379,-0.00106526,0.0436758,0.00426106,19.95,19.95,30,-0.165256,0.525707,10.2059
12442203,0.00745685,0.0490022,0.00213053,21.3,21,29.55,-0.112566,0.681383,10.261
12454404,0.00958738,0.0383495,0.00532632,21.15,21.15,29.1,-0.146096,0.573607,10.2179
12477203,-0.00213053,0.0340885,0.00745685,20.4,21.15,29.1,-0.237107,0.504152,10.2897
12489382,0.00852211,0.0340885,0.0117179,21.6,22.2,30.3,-0.153281,0.393981,10.1269
12512230,0.00639159,0.0298274,0.00319579,22.5,22.65,29.4,-0.273032,0.583187,10.261
12525383,0.00745685,0.0383495,0,22.2,21.15,30.15,-0.225132,0.686173,10.2227
12548203,0.00532632,0.0330232,-0.00532632,21.15,21.15,30.9,-0.285007,0.518522,10.1628
12560379,0.0106526,0.0351537,-0.00532632,19.95,21,30,-0.325723,0.590372,10.1795
12584222,0.0106526,0.0308927,-0.00426106,20.55,21,30,-0.277822,0.554447,10.249
12596377,-0.00639159,0.04048,-0.00319579,22.05,21.45,30.3,-0.306563,0.544867,10.2035
12619203,-0.00213053,0.0372843,-0.00319579,20.55,20.7,28.2,-0.359253,0.528102,10.1604
12631379,0.00639159,0.0340885,-0.00106526,20.25,19.95,30.6,-0.296982,0.549657,10.2706
12644378,0.00426106,0.0266316,-0.00213053,21,21.75,28.95,-0.217947,0.508942,10.1436
12667203,-0.015979,0.0394148,-0.00106526,21.15,21.9,30.9,-0.407153,0.413141,10.2562
12679379,0.00213053,0.0458064,-0.00852211,19.35,20.55,30.15,-0.383203,0.465831,10.1388
12702217,-0.0181095,0.0436758,-0.0117179,20.25,22.5,29.25,-0.416733,0.456251,10.2083
12714378,-0.0170442,0.0340885,0.00319579,19.5,21.45,29.55,-0.440684,0.611928,10.2107
12737203,0.0213053,0.0276969,-0.00213053,20.4,21.15,29.4,-0.0910107,0.698148,10.2203
12749379,-0.00319579,0.052198,-0.00319579,20.1,21.6,30.15,-0.301772,0.525707,10.1652
12772209,-0.00213053,0.0479369,-0.0106526,22.2,22.35,30.45,-0.280217,0.702938,10.225
12784379,-0.00426106,0.0330232,-0.00213053,20.25,19.95,30,-0.299377,0.463436,10.1915
12807203,-0.0149137,0.0298274,-0.00639159,20.4,21.6,30.9,-0.383203,0.403561,10.2753
12819384,-0.015979,0.0223706,-0.00319579,21.3,21.75,30.3,-0.361648,0.444276,10.17
12842203,-0.0170442,0.0213053,0.00426106,21.3,21.45,29.25,-0.373623,0.480201,10.2322
12854382,-0.0319579,0.00958738,0,20.4,21.9,29.1,-0.428709,0.468226,10.1795
12877220,-0.0340885,0.015979,-0.00426106,22.05,21.75,30,-0.304167,0.494572,10.2227
12890377,0.00106526,0.0266316,0.00106526,21.3,21,30,-0.153281,0.444276,10.1771
12913203,-0.0181095,0.0383495,0.00213053,21.6,21,30,-0.158071,0.748444,10.2346
12925379,0.0223706,0.00639159,0.00639159,21.6,19.95,30.3,-0.258662,0.571212,10.3687
12948209,-0.0234358,-0.00319579,0.00106526,20.55,22.2,31.05,-0.256267,0.549657,10.1388
12960379,-0.00106526,-0.00532632,0.00213053,21.15,20.55,29.4,-0.237107,0.587977,10.34
12983203,-0.00426106,-0.00639159,-0.00745685,22.05,19.5,29.55,-0.280217,0.487386,10.0909
12995385,-0.0138484,-0.00319579,0.00319579,22.05,20.7,30,-0.428709,0.540077,10.2634
13018203,0.00426106,-0.0170442,0.00106526,20.55,20.7,30.3,-0.359253,0.583187,10.2131
13030382,-0.00319579,0.00852211,0.00745685,20.7,20.55,29.4,-0.431104,0.587977,10.1364
13053249,0.00426106,0.00852211,0.00745685,21,21.45,29.55,-0.476609,0.523312,10.2466
13066379,-0.00426106,0,0.0106526,21.3,21,30,-0.546064,0.504152,10.2179
13089203,-0.00852211,0.00106526,0.00639159,21,19.95,29.25,-0.364043,0.446671,10.2107
13101379,-0.0298274,0.00213053,0.0106526,20.7,22.35,29.1,-0.205972,0.611928,10.2658
13124223,-0.0181095,0.015979,0,21,20.7,29.25,-0.172441,0.580792,10.2442
13137379,-0.04048,-0.0106526,-0.00319579,21.9,21.9,29.85,-0.213157,0.470621,10.2729
13150679,-0.0319579,-0.0117179,0,20.4,20.85,30.15,-0.277822,0.403561,10.2706
13173248,-0.0468716,0.0191748,0.00213053,21.9,21.6,28.8,-0.380808,0.896935,10.3161
13186379,-0.0436758,0,0.00745685,21.9,20.55,30.9,-0.603545,1.0119,10.1987
13209203,-0.0458064,-0.0191748,0.00532632,21,21,29.25,-0.364043,0.777184,10.3735
13221379,-0.0884169,-0.0255663,-0.0106526,21.45,21.6,29.85,0.0574805,0.547262,9.99992
13244223,-0.0553937,0.02024,0.00426106,20.7,21.15,30.15,-0.318538,0.27902,10.158
13257379,0.0149137,-0.0191748,0.00213053,20.55,20.25,29.55,-0.411943,-0.0347278,10.0646
13280203,-0.052198,-0.0234358,0.00213053,20.7,21.15,30.45,-0.356858,0.056283,10.2921
13292399,-0.0255663,-0.0436758,0.0106526,20.7,20.85,28.8,-0.306563,-0.281415,10.0071
13315204,-0.0990696,-0.0234358,0.00426106,22.05,21,30.6,-0.57241,-0.968785,9.6694
13327371,0.00426106,0.0127832,0.0298274,22.8,21,29.25,-0.63468,0.101788,10.3017
13350203,-0.0106526,0.0394148,0.0287621,21.9,20.55,30.15,-0.404758,0.530497,9.93525
13363372,0.00639159,0.0234358,0.0127832,22.5,21.15,29.1,-0.162861,0.659828,10.4574
13386203,0,-0.00106526,0.0191748,21.15,20.85,28.35,-0.0742456,0.370031,10.1292
13398373,-0.0372843,-0.0234358,0.0149137,22.2,20.85,30.45,-0.110171,0.473016,10.2346
13421217,0.00213053,0.0181095,0.0117179,20.25,20.7,30,0.0790356,0.113763,10.1532
13434378,-0.0191748,-0.00213053,0.00532632,21.6,21.75,30.6,-0.258662,0.434696,10.0526
13447377,0,0.00426106,0.00745685,21.45,20.1,29.1,-0.265847,0.561632,10.3424
13470203,0.0138484,-0.0106526,0.00532632,20.7,21.15,30.45,-0.469424,0.286205,10.1149
13483378,0.0138484,0.015979,0.0276969,20.55,21.75,29.25,-0.220342,-0.106578,10.1652
13506203,-0.00852211,0.02024,0.00532632,20.7,21.15,28.8,-0.191602,-0.35566,10.1771
13518377,-0.00639159,0.0138484,0.0127832,21.3,21.45,30,-0.359253,-0.00598755,9.86819
13541217,0.0223706,0.0181095,0.00958738,20.25,21.45,30.6,-0.483794,0.441881,10.4933
13554379,0.0468716,-0.0138484,-0.00213053,21.9,21.9,28.8,-0.227527,0.607138,10.043
13577203,-0.00958738,-0.0181095,0.0234358,20.1,21.6,30.15,-0.337698,0.324525,10.5124
13589377,0.072438,-0.0106526,0.0234358,21.15,21.6,29.85,-0.246687,0.25507,9.91369
13612209,0.00213053,-0.0266316,0.00213053,21.3,20.7,29.25,-0.268242,0.29339,10.4286
13624382,0.113983,-0.0351537,0.0149137,20.4,20.1,29.85,-0.215552,0.207169,10.0718
13647203,0.147006,-0.0735032,0.0340885,19.5,19.5,30.6,-0.419128,0.214354,10.0766
13659382,0.219444,-0.0703075,0.0266316,21.3,20.7,29.25,0.170046,0.0371228,10.2059
13682203,0.213053,-0.0500674,0.0383495,20.25,22.5,29.55,-0.0263452,0.199984,9.97357
13694378,0.446346,-0.052198,0.0649811,21,20.7,30,-0.380808,-0.0754431,10.0358
13717217,0.555003,-0.00106526,0.0671117,20.55,21,29.25,-0.122146,0.0874182,9.70533
13730378,0.795752,0.103331,0.0980043,22.8,22.2,29.25,0.416733,0.262255,10.1819
13753203,0.909736,0.232228,0.0756338,19.95,21.45,30,0.428709,0.233514,9.71251
13765378,1.13557,0.193878,0.0170442,20.4,21.6,28.8,-0.304167,0.784369,10.2011
13788209,1.34862,0.246076,0.0245011,20.55,22.95,28.95,-0.548459,0.753234,9.98555
13800379,1.49244,0.256729,0.0415453,20.1,23.85,29.85,-0.376018,0.753234,9.99034
13823203,1.7236,0.183225,-0.00319579,22.2,22.65,28.8,-0.117356,1.2514,10.1029
13835384,1.81841,0.254598,0.0383495,20.55,23.25,27.9,-0.364043,1.16757,10.4334
13848379,1.9015,0.289752,0.02024,21.45,23.1,26.7,-0.450264,1.65376,10.6274
13871203,2.1806,0.451672,0.184291,20.55,26.25,27.15,-0.608335,2.29084,11.3507
13893249,2.14651,0.592287,0.266316,20.25,24.3,25.8,0.0143701,2.35311,9.91609
13906382,2.77821,0.612527,0.363255,21.6,24.75,26.85,-0.754431,2.75787,10.8909
13919376,2.84745,0.668986,0.416518,21.6,26.55,24.75,-1.67651,3.74461,10.0215
13942203,3.28954,0.60507,0.490022,21.6,27.3,24,-1.51365,3.77096,11.0034
13954417,3.444,0.496413,0.557133,19.5,26.55,22.35,-1.78429,4.10866,10.5077
13977203,3.67942,0.385626,0.684965,21.45,27.15,22.5,-1.55916,4.69544,13.2524
13990378,3.59527,0.396278,0.853277,20.7,27.9,19.95,-1.04183,6.05341,13.99
14013249,2.8581,0.4048,0.976847,19.95,29.55,19.5,-0.924478,5.31335,12.1985
14026379,2.95078,0.312122,0.999218,19.35,27.9,19.95,-0.0934058,4.22122,8.5629
14049203,3.00618,0.397344,0.82558,18.6,29.7,18.9,-2.96024,4.19967,9.53049
14062378,2.65677,0.319579,0.275903,18.6,29.4,16.5,-1.79866,4.61401,22.581
14075406,0.247141,0.206661,-0.131028,17.7,28.8,16.65,-0.584385,2.13277,8.50782
14098203,0.427171,-0.0511327,-0.125701,18.45,31.35,17.1,1.37235,0.27902,12.2512
14110377,0.34195,0.137419,0.206661,18.15,30.6,19.2,2.30401,0.35566,6.01221
14133250,-0.772317,0.28123,0.428236,17.25,30.45,20.7,0.00239502,0.559237,11.5926
14146382,-0.661529,0.0852212,0.388821,17.7,30.6,20.85,-1.96392,0.674198,7.8923
14169203,-1.59364,-0.092678,0.158724,19.2,31.05,21.3,-2.19623,1.05501,7.73183
14181377,-1.63625,-0.0426106,-0.056459,17.55,29.4,24.15,-2.21539,2.07768,10.6825
14204223,-2.30204,-0.00958738,-0.319579,18.6,30.9,25.95,-2.23695,2.60219,7.48035
14217382,-2.49272,-0.147006,-0.507066,16.8,30.15,27,-1.20469,2.82493,8.50782
14240203,-2.36915,-0.136354,-0.516653,18.6,28.2,29.1,-0.665815,3.62486,8.38328
14252401,-2.90285,-0.056459,-0.512392,17.4,28.05,31.35,-0.814307,4.19967,9.15687
14275204,-2.77927,-0.0894822,-0.52411,16.35,28.05,32.7,-1.2526,4.60203,9.49217
14287371,-2.99446,-0.143811,-0.600809,17.7,25.8,32.7,-2.31119,5.61752,8.96048
14310203,-2.94226,-0.197074,-0.729706,16.65,27,36.3,-2.36628,6.07976,10.0071
14323372,-2.81123,-0.173638,-0.802144,17.55,24.6,36,-2.20821,6.35039,9.73407
14346203,-2.86556,-0.142745,-0.84795,15.6,23.25,37.65,-2.47166,6.47733,10.3544
14358373,-2.65997,-0.134223,-0.869256,16.65,24.75,37.65,-2.29443,6.33842,10.5029
14381217,-2.53746,-0.036219,-0.86819,17.1,23.7,37.95,-1.89207,6.41506,11.4345
14394378,-2.82721,0.105461,-0.872451,15.9,22.5,40.05,-1.72202,6.74078,13.5996
14407377,-2.77288,0.0852212,-0.773382,17.1,22.2,41.55,-0.387993,5.97677,11.6285
14430203,-2.75797,0.129962,-0.52198,17.1,22.2,42.9,0.447869,5.20797,11.286
14452203,-2.53639,0.189617,-0.327036,17.85,21.6,44.85,-0.392783,5.08343,12.1219
14464379,-2.53426,0.143811,-0.273773,17.55,21.6,45.45,-1.36037,4.73615,10.9915
14477377,-2.4288,0.056459,-0.353668,17.85,19.05,48,-1.74597,4.46312,10.8094
14500217,-1.94837,0.0958738,-0.413323,18.75,18.75,48.45,-1.52563,3.87394,9.4299
14513379,-1.91854,0.178964,-0.44315,18.45,17.7,49.8,-1.47294,3.99849,11.4896
14536203,-1.7449,0.20027,-0.429302,19.2,16.2,51.6,-0.790356,3.87155,11.8896
14548377,-1.72466,0.20027,-0.306796,19.05,15.6,51.45,0.237107,3.1746,10.0311
14571209,-1.31028,0.268447,-0.0415453,20.55,12.9,51.9,2.65368,2.12318,10.5556
14584382,-1.42639,0.295078,0.154463,21.15,13.05,53.25,1.74836,2.84648,10.2107
14607203,-1.27619,-0.0213053,0.245011,19.65,12.75,54.3,0.0455054,3.20334,10.2083
14620382,-1.12705,-0.194943,0.234358,20.4,11.25,54.3,-1.20948,3.1722,8.70421
14643203,-1.09296,-0.125701,0.184291,20.4,10.05,54.6,-1.10889,3.86915,10.6154
14656378,-1.0855,0.0255663,0.148072,18.45,8.4,56.55,-1.37235,3.30153,7.2193
14669377,-0.717988,0.105461,0.100135,19.5,6.6,55.5,-1.41785,3.41171,7.25522
14692209,-0.330232,0.103331,0.0372843,20.25,5.1,55.5,-1.71962,3.45242,6.5942
14704379,-0.136354,0.0447411,-0.0276969,20.4,6.45,56.7,-1.27176,3.57217,7.57616
14727203,0.147006,-0.0649811,-0.0181095,20.25,6.9,55.5,-0.222737,3.35662,7.01812
14739384,0.327036,-0.213053,0.0617853,20.25,7.35,56.55,-0.0981958,2.96623,6.30919
14762203,0.754207,-0.429302,0.181095,19.65,7.5,57,-0.134121,3.14346,6.57743
14775377,0.92891,-0.389887,0.419714,20.7,8.25,55.65,3.42248,-1.55796,7.84679
14798217,1.23251,-0.6839,0.295078,20.55,8.4,58.65,-6.28693,-5.09061,16.0521
14811379,0.299339,-0.629571,0.171508,17.55,9.3,57,-2.32317,-5.69895,14.9289
14834203,-0.434628,0.214118,0.162985,16.5,9.3,58.05,-4.711,-4.49665,2.70469
14846377,2.83999,0.0916127,-0.0479369,17.7,9.9,58.65,-1.30529,-1.57233,3.05436
14869209,1.19842,-0.0937433,0.209857,18.15,11.1,57.15,2.5004,0.868195,21.781
14882382,1.05461,-0.0671117,0.48363,17.25,12.75,58.8,0.991538,1.51485,9.67898
14895377,0.732902,-0.164051,0.319579,16.5,14.25,57.3,-4.06435,0.00359253,14.3828
14918217,0.775512,-0.324906,0.0607201,16.8,14.85,57.75,-4.11704,0.33171,10.5771
14931378,0.597613,-0.427171,-0.0372843,16.2,16.35,57.3,-1.85854,-0.190404,10.3208
14954203,0.677508,-0.560329,-0.0255663,16.2,15.3,58.05,-0.783171,-0.475411,10.5675
14966377,0.649811,-0.592287,-0.0234358,15.45,16.35,57.3,-1.14961,0.0275427,9.45146
14989209,0.709466,-0.798948,-0.102265,16.2,17.1,58.05,-0.474214,0.31255,10.0334
15001382,0.698813,-0.916127,-0.0543285,14.85,18.75,57.6,-2.04056,-1.02627,7.98091
15024203,1.7204,-0.815992,-0.153398,14.7,17.55,57.75,-0.771196,1.64658,11.0681
15037382,-0.318514,-0.296144,0.0138484,13.05,19.5,57.6,5.03194,0.796344,21.3236
15060203,0.559264,-0.117179,0.0330232,12.9,19.35,57,-0.5772,0.32692,3.67946
15073378,-0.0553937,-0.00745685,-0.00639159,13.95,19.8,57,1.346,0.29339,15.815
15096217,0.420779,0.13955,0.0181095,12.6,19.8,57,-1.17116,0.482596,6.47684
15109378,-0.0745685,0.0298274,-0.0170442,12.75,18.75,57.6,-2.46208,0.769999,14.2175
15122376,0.478304,0.04048,0.0245011,12.45,19.2,56.55,-2.62255,0.892145,7.71746
15145203,-0.271642,0.0394148,0.0138484,13.95,20.1,56.7,-0.536484,0.724493,12.0141
15167209,0.332363,0.0319579,-0.0138484,13.95,21.6,57.3,-0.524509,0.87059,9.44906
15180379,-0.120375,0.056459,-0.00426106,13.65,20.55,58.05,-1.16637,0.209564,10.455
15193377,0.236489,0.115049,0.0106526,15.45,19.8,57,-1.01309,-0.0730481,10.3256
15216217,-0.109722,0.072438,-0.00852211,13.35,20.85,56.7,-1.05381,-0.061073,9.89932
15229379,0.147006,0.0532632,0.00213053,13.95,20.55,57.3,-0.680186,0.544867,10.4669
15252203,-0.0735032,0.110787,0.0106526,12.9,20.85,57,0.273032,0.223934,9.95201
15264377,0.110787,0.0543285,-0.0170442,13.35,20.55,57,0.579595,-0.063468,10.261
15287209,-0.0681769,0.0798948,-0.0191748,12.9,20.55,57.3,0.117356,0.00119751,10.055
15300382,0.0298274,0.0777643,-0.056459,14.7,21.6,57.3,0.328118,-0.123344,10.2394
15323203,0.0127832,0.264186,0.00532632,13.65,20.55,57.3,0.423918,0.599952,10.055
15336382,0.164051,0.308927,-0.0255663,14.4,20.85,56.7,-0.661025,0.468226,11.5663
15349379,-0.223706,0.390952,0.0287621,12.75,20.25,57.9,-1.09931,0.89454,10.4262
15372203,0.00639159,0.448476,0.02024,14.4,21.6,57,-1.14721,0.111368,10.5771
15384378,-0.299339,0.401605,0.0106526,15.75,20.1,57.75,-1.06578,0.118553,10.4789
15407209,0.207727,0.447411,-0.0617853,14.7,19.8,58.35,0.342488,1.08614,9.88495
15420379,-0.496413,0.646616,-0.0351537,16.2,20.55,58.05,-1.75076,-0.0227527,10.5651
15443203,-0.178964,0.756338,-0.04048,16.2,21.15,56.25,-0.673001,0.463436,13.3601
15456384,-0.508131,0.742489,-0.106526,16.2,19.05,57.75,-0.438289,0.707728,8.12941
15479203,-0.38243,0.537959,-0.115049,17.1,20.7,56.85,-0.783171,0.247885,11.7603
15491377,-0.0703075,0.413323,-0.13955,17.7,19.5,57.15,-0.708926,-0.0922083,7.62645
15514217,-0.406931,0.233293,-0.0884169,17.4,19.2,57.9,-1.59029,-0.599952,9.31254
15527379,0.11931,0.0713727,-0.0266316,17.1,19.2,56.85,-1.85135,-0.219144,9.5736
15550203,-0.0628506,-0.0660464,0.0149137,17.4,19.5,58.65,-1.87051,-0.226329,7.29594
15562377,0.412257,-0.217314,-0.00106526,16.8,19.05,57.75,-1.16398,-0.152084,10.9076
15585214,-0.04048,-0.233293,0.04048,18.45,19.5,57.15,-1.64059,0.223934,8.70421
15598382,0.38243,-0.378169,0.0255663,16.2,19.05,57.75,-1.22386,-0.370031,9.92567
15611377,0.32384,-0.574178,0.0308927,17.7,19.2,57.9,-1.88249,-0.199984,7.28875
15634244,0.755272,-0.808536,0.0553937,17.85,19.8,57.75,-0.785566,0.525707,11.5998
15647378,0.0191748,-0.535828,0.0426106,16.2,20.55,58.35,-1.25739,0.734074,12.0908
15670203,0.186421,-0.444215,0.056459,14.7,19.8,57.75,-0.962798,0.583187,11.013
15683377,-0.0298274,-0.383495,-0.0276969,16.35,21,57.9,0.593965,0.85622,10.6394
15706209,0.0490022,-0.287621,-0.0436758,16.2,21.15,57.3,-0.598755,0.166454,10.6657
15719382,-0.052198,-0.107592,-0.0181095,15.3,21,57.15,-0.64426,0.061073,10.1029
15742203,0.0511327,-0.149137,-0.0117179,14.85,19.5,57.9,-0.59636,0.463436,10.237
15754403,0.0958738,-0.313188,-0.0798948,14.7,20.55,57.75,-0.0167651,-0.33171,9.51852
15777203,-0.056459,-0.116114,-0.0234358,14.4,21.9,57,-0.452659,0.396376,10.5101
15789378,-0.015979,-0.113983,-0.00958738,14.7,21.6,56.7,-0.593965,0.382006,10.1867
15812215,0.0181095,-0.117179,-0.0170442,15.9,21.45,57.15,-0.481399,0.547262,10.3592
15825378,-0.00213053,-0.0490022,0.02024,13.95,21.6,56.7,-0.344883,0.235909,10.0766
15838371,0.0479369,-0.0777643,0.00532632,14.4,21.9,57.75,-0.318538,0.427511,10.34
15861203,-0.0298274,-0.0628506,0.00532632,14.4,19.8,56.7,-0.258662,0.597557,10.0718
15873483,0.0213053,-0.0809601,0.0138484,15.3,20.25,58.2,-0.296982,0.319735,10.3735
15896209,-0.0170442,-0.0585895,0.00745685,13.8,21.45,57.9,-0.167651,0.449066,10.1053
15908372,0.00532632,-0.0447411,0.00319579,13.95,22.35,55.95,-0.253872,0.425116,10.431
15931203,0.00319579,-0.0447411,0.00639159,13.95,21.6,57.3,-0.455054,0.295785,10.1245
15944379,-0.0287621,-0.0458064,0.00639159,12.9,20.85,58.05,-0.414338,0.547262,10.1939
15967203,0.0117179,-0.0266316,0.0266316,14.25,21,57.9,0.0143701,0.470621,10.2897
15979377,-0.0106526,0.00213053,-0.00213053,14.85,21.45,57.15,-0.328118,0.393981,10.1819
16002217,-0.00319579,0.00213053,0.0138484,12.75,21,57.15,-0.184417,0.391586,10.2801
16015379,-0.02024,-0.00319579,0,14.4,20.1,56.7,-0.383203,0.26465,10.0598
16038203,-0.00958738,-0.00532632,0.0106526,14.25,21.45,56.85,-0.368833,0.552052,10.3041
16050379,0.0117179,-0.00532632,0.00426106,12.75,21.75,57.9,-0.00958008,0.27902,10.0885
16073204,-0.00319579,0.036219,0.00532632,13.65,22.35,55.95,-0.342488,0.286205,10.2011
16086379,0.00106526,0.00745685,0.00852211,13.95,21.6,56.25,-0.411943,0.415536,10.2586
16099672,0.00319579,0.00319579,0.00426106,12.45,19.2,57.15,-0.320933,0.587977,10.3232
16122217,-0.0181095,-0.00639159,0,14.4,21.15,57,-0.174836,0.578397,10.2179
16135379,0.0170442,0.015979,-0.00532632,14.4,19.35,56.25,-0.182021,0.449066,10.1532
16158203,-0.036219,-0.00745685,0.00213053,13.95,21.9,57.3,-0.0670606,0.540077,10.3472
16171378,0.00426106,0.0340885,-0.00958738,13.35,21.15,57.75,-0.280217,0.743654,10.2179
16194204,-0.00958738,0.0106526,-0.0117179,15,21.15,57,-0.486189,0.556842,10.3592
16206372,-0.00426106,0.00532632,-0.00426106,14.4,19.8,58.05,-0.335303,0.489782,10.1604
16229203,-0.0287621,-0.00958738,-0.0138484,13.5,20.7,57.9,-0.354463,0.554447,10.3424
16241377,-0.02024,-0.0213053,-0.00532632,13.5,21.45,57.9,-0.404758,-0.137714,10.0406
16264203,-0.105461,0.00745685,-0.0287621,15.3,21,56.1,-0.189207,0.159269,10.1292
16276373,0.0958738,0.00958738,0.0170442,13.95,20.1,56.7,-0.0790356,0.183219,10.2298
16299217,-0.0447411,0.0809601,0.00852211,14.4,20.1,57,-0.220342,0.310155,10.0813
16312378,0.0245011,0.0490022,0.00958738,14.7,20.85,56.7,-0.294587,0.403561,10.419
16335203,-0.0234358,0.0490022,0,14.85,20.7,56.55,-0.320933,0.432301,10.0406
16347378,-0.04048,0.0426106,0.0170442,14.85,20.25,56.85,-0.397573,0.25028,10.261
16370209,-0.0553937,0.00106526,0.0170442,14.4,20.55,57.75,-0.720901,0.3365,10.146
16383378,-0.0351537,0.00319579,0,14.55,20.7,57.15,-0.855022,0.370031,10.0598
16396375,0.0735032,-0.0149137,0.00958738,13.35,21.9,57.75,-0.507744,0.590372,10.2083
16419205,0.0298274,0.00106526,-0.0106526,14.4,21.15,57.3,-0.191602,0.334105,10.1508
16432376,0.100135,0.00426106,-0.00426106,14.85,21.75,57.6,-0.241897,0.0155676,10.225
16455205,0.0830906,0.04048,-0.00852211,14.4,20.55,57,-0.287402,0.267045,9.99992
16467375,0.140615,0.0681769,0.00958738,14.85,21.75,58.2,-0.450264,0.31734,10.2562
16490209,0.18003,0.0319579,-0.0127832,14.7,19.35,57.3,-0.613125,0.405956,10.1053
16503378,0.149137,0.0681769,-0.00213053,14.7,21.6,56.7,-0.344883,0.599952,10.2514
16526203,0.20027,0.00745685,-0.00213053,14.7,21.6,57,-0.0119751,0.473016,10.1364
16539380,0.218379,0.0394148,-0.00319579,14.7,21.9,57.75,-0.117356,0.496967,10.2107
16562203,0.24075,0.0149137,-0.0181095,13.5,21.75,57.15,-0.426313,0.525707,10.0933
16574376,0.26099,0.0266316,-0.0330232,14.4,23.1,56.25,-0.354463,0.609532,10.0861
16597217,0.314253,0.052198,-0.0319579,15.45,21.6,56.25,-0.134121,0.484991,10.1125
16610378,0.44528,0.0820254,-0.0138484,14.85,22.2,57.15,-0.201182,0.338895,9.88256
16623373,0.642354,0.122505,-0.00852211,13.65,23.1,57.75,-0.0359253,0.841849,10.3376
16646203,0.752077,0.246076,-0.0213053,14.7,23.1,57,-0.0838257,0.463436,9.67419
16658381,0.927845,0.320645,-0.0287621,14.4,24.9,55.65,-0.593965,0.492177,9.98794
16681203,1.21121,0.42291,0.0245011,14.85,24.75,56.1,-0.55804,1.23463,9.49936
16693375,1.39976,0.490022,-0.00106526,15.75,25.65,57,-0.708926,0.916095,9.92567
16716217,1.67566,0.543285,0.04048,15,26.1,55.35,-0.404758,0.980761,9.75083
16729379,1.74703,0.62531,0.0117179,17.7,27.75,54,-0.524509,1.65616,10.3113
16752203,2.06022,0.604005,0.0628506,15.9,27.75,52.95,-0.720901,1.73759,10.2945
16764377,2.2818,0.526241,0.104396,15.9,29.25,54,-0.766406,1.70885,11.2884
16787209,2.24345,0.610397,0.169377,16.5,32.7,51.45,-0.680186,3.0764,11.2381
16800382,2.432,0.630637,0.274838,17.55,33.75,50.7,-1.26457,3.76138,11.8129
16823203,2.29991,0.456998,0.379234,16.2,34.5,50.1,-2.20821,3.54104,11.9902
16835382,2.46609,0.186421,0.474043,17.25,36,50.1,-2.29443,4.10866,11.2429
16858203,2.29991,-0.0127832,0.546481,17.1,38.4,46.65,-2.47406,4.53497,11.6716
16870378,2.27008,-0.164051,0.590156,16.5,39.75,46.95,-1.8298,4.79603,10.8957
16893250,1.94943,-0.206661,0.615723,16.35,41.4,45,-1.54718,6.12526,10.9627
16906379,1.95796,-0.169377,0.679639,16.5,41.55,44.1,-2.22976,3.54822,10.3664
16929203,1.41893,-0.255663,0.530502,16.2,42,41.25,-3.9925,2.44891,12.7638
16941378,0.789361,-0.275903,0.314253,15.3,43.95,43.2,-1.74597,1.45976,10.7424
16954718,-0.072438,-0.13955,0.291882,14.55,43.95,42.15,-0.459844,0.595162,9.5736
16977203,0.360059,-0.0319579,0.412257,15,43.5,41.25,-0.203577,0.724493,7.70549
16990376,-0.52411,-0.00745685,0.44315,14.85,43.95,42.9,-0.730481,1.11488,9.46583
17013251,-0.547546,-0.0511327,0.389887,14.25,43.2,42.15,-0.900527,1.1532,9.25027
17026379,-1.09829,-0.036219,0.286556,14.4,43.05,44.1,-0.974773,1.12446,8.07911
17049203,-1.10894,-0.0372843,0.174703,13.65,42.75,43.8,-0.790356,1.20829,8.92934
17062378,-1.44876,0.0308927,0.0138484,13.5,41.7,46.65,-1.33882,1.65855,8.42878
17085214,-1.5457,0.0969391,-0.157659,12.75,41.7,49.5,-0.946033,1.61305,9.08262
17098379,-1.68205,0.185356,-0.246076,14.55,39.9,50.55,-0.61073,1.90045,9.78197
17111672,-2.03252,0.188552,-0.332363,13.5,39.15,50.55,-1.03465,2.50878,11.1663
17134237,-2.09644,0.120375,-0.412257,13.5,38.1,54.45,-0.862207,3.11233,11.7076
17147378,-2.63653,0.0798948,-0.470847,13.65,36.45,54.9,-1.14961,3.77575,11.4609
17170203,-2.56942,-0.015979,-0.532632,13.65,34.2,57.3,-0.790356,4.07752,10.6394
17183377,-2.64079,-0.0660464,-0.52198,13.5,33.6,57.6,-0.160466,4.47988,9.65264
17206209,-2.41389,-0.00213053,-0.401605,12.75,29.85,61.05,0.234712,4.3745,10.0957
17219382,-2.23279,0.0553937,-0.287621,14.55,29.55,62.1,-0.387993,4.57569,10.7304
17242203,-2.33612,0.0479369,-0.255663,14.85,26.25,65.55,-1.04183,5.10259,12.0213
17254398,-2.21788,0.0426106,-0.218379,15,24.6,65.7,-0.895737,4.94931,11.0681
17277203,-2.07833,0.0713727,-0.152333,14.55,20.25,68.4,-0.713716,4.49904,9.91848
17289377,-1.85143,0.111853,-0.120375,14.25,20.7,69,-0.756826,4.07034,10.3687
17312220,-1.67673,0.174703,-0.107592,13.8,17.7,69.75,-0.622705,3.35662,9.77718
17324377,-1.55742,0.181095,-0.12144,14.85,14.7,71.1,-0.58678,2.97821,9.82268
17347203,-1.28258,0.0841559,-0.145941,15,12.75,70.65,-0.754431,2.62135,8.84312
17359376,-0.803209,-0.0543285,-0.231162,14.4,10.8,71.4,-1.83938,2.43933,9.92806
17382217,-1.05568,-0.00426106,-0.357929,13.35,8.7,69.9,-2.07888,2.57105,11.195
17395377,-0.809601,0.00319579,-0.490022,14.55,7.65,70.8,-2.32796,1.86692,9.45625
17408374,-0.508131,0.117179,-0.578439,13.5,5.55,71.55,-1.97829,2.05612,11.2956
17431203,-1.02478,0.302535,-0.638093,11.1,4.95,71.4,-2.33993,2.43933,14.3086
17444379,-1.22612,0.312122,-0.693487,13.05,3.6,70.05,-0.684976,1.50527,11.4489
17467203,-1.28151,0.339819,-0.566721,12.45,2.85,70.05,0.304167,0.518522,8.7066
17479377,-0.885235,0.052198,-0.426106,12.9,0.45,69.3,0.61552,-0.216749,8.68984
17502217,-0.857538,-0.1012,-0.24288,14.25,0.3,69.45,0.213157,0.101788,8.68026
17515379,-0.624245,-0.210922,-0.142745,13.5,-1.35,69,-0.960403,0.120948,8.58925
17538203,-0.465521,-0.225836,-0.0426106,12.45,-1.8,68.7,-1.08973,0.590372,9.12813
17550382,-0.210922,-0.0628506,0.123571,12.75,-2.85,68.4,-0.598755,0.199984,9.49217
17573204,-0.370712,0.30147,0.290817,11.7,-2.85,67.35,-0.795147,0.470621,12.2848
17586379,-0.436758,0.34408,0.311057,12.45,-3.6,67.65,-1.82021,0.353265,11.025
17609203,-0.757403,0.138484,0.234358,13.8,-3.3,66.6,-1.59269,0.92807,11.2453
17622382,-0.754207,-0.0852212,0.236489,13.35,-4.5,66.45,-0.725691,1.70166,11.092
17635379,-0.891626,-0.204531,0.380299,12.75,-4.8,67.65,0.0407153,1.48371,8.16294
17658203,-0.316384,-0.218379,0.52198,13.35,-6.45,66.75,-0.670605,1.62502,5.76552
17670382,0.109722,-0.216249,0.573112,13.05,-6.9,66,-1.53042,2.02259,7.83242
17693203,0.206661,-0.413323,0.288687,12.75,-6.9,65.25,-3.4153,2.24294,6.87202
17705379,0.797883,-0.574178,-0.0671117,11.7,-5.85,67.35,-0.637075,0.300575,7.66956
17728203,0.723314,-0.316384,-0.113983,12.45,-5.55,66,-0.929268,-1.18434,11.8345
17740384,0.311057,-0.355798,-0.0319579,10.95,-5.55,66.6,-0.984353,-2.60937,11.0154
17763203,0.426106,-0.372843,0.170442,10.65,-5.1,67.65,1.22625,-3.33985,10.625
17775377,0.480434,-0.275903,0.315318,10.5,-6,67.5,0.63468,-2.46328,7.52586
17798203,0.912932,-0.0617853,0.334493,9.15,-3.3,67.65,0.165256,-1.51245,9.25985
17810378,0.922519,0.0852212,0.298274,9.6,-5.1,66.6,-0.668211,-1.28014,9.26225
17833203,0.846885,0.167247,0.24075,10.65,-3.6,66.6,-1.31726,-1.25619,10.8118
17845377,0.856473,0.170442,0.181095,9.6,-1.8,67.05,-1.80584,-0.841849,10.0263
17868209,0.876713,0.0213053,0.100135,11.4,-3.3,66.6,-2.10283,-0.741259,10.7064
17881382,0.76699,-0.157659,0.0458064,9.3,-3,69.3,-1.98547,-0.343685,11.1375
17904203,0.630637,-0.262055,0.00426106,9.9,-1.35,68.4,-1.94955,-0.28381,10.5915
17916382,0.578439,-0.351537,-0.0415453,9.75,-0.9,68.25,-1.75794,-0.300575,10.2514
17939203,0.599744,-0.455933,-0.0543285,8.7,-0.15,68.55,-1.07776,-0.441881,10.0406
17951378,0.597613,-0.569916,-0.0266316,8.1,-0.3,68.7,-0.716111,-0.209564,10.6106
17974246,0.601874,-0.642354,-0.0213053,7.65,0.15,68.25,-0.905317,-0.164059,10.7496
17987378,0.609331,-0.646616,-0.0937433,7.05,0,68.7,-0.241897,0.319735,10.7496
18010203,0.54435,-0.420779,-0.0830906,7.05,2.1,69.45,0.761616,0.362845,11.5208
18022378,0.273773,-0.272708,0.015979,7.05,2.55,68.4,1.5855,0.0706531,12.1219
18045214,0.185356,-0.160855,-0.00106526,6.15,3,68.85,0.387993,0.523312,11.2118
18057379,0.125701,-0.0713727,-0.0138484,5.7,2.55,69.45,0.155676,0.31734,10.4933
18080203,0.0905475,-0.0287621,-0.0245011,5.85,3.75,67.5,0.172441,0.221539,10.8861
18092408,0.0447411,0.00213053,-0.015979,5.1,1.95,69.3,-0.292192,0.34608,10.0287
18115203,0.105461,-0.00213053,-0.00639159,5.4,3,69.3,-0.244292,0.449066,10.6562
18127371,0.0298274,0.0191748,-0.00426106,5.85,2.4,68.55,-0.0479004,0.401166,10.1364
18150203,0.0149137,-0.0234358,-0.00745685,6,2.1,69.45,-0.325723,0.111368,10.1628
18163373,0.14168,-0.0213053,0.00213053,7.2,2.7,69.3,-0.0502954,0.238304,9.93046
18176379,0.0149137,-0.0330232,-0.00852211,5.85,2.7,69.3,0.308958,0.338895,10.7496
18199203,0.0127832,0.00745685,0.00319579,5.25,2.85,67.95,0.179626,0.525707,10.2562
18211377,-0.00958738,0.00532632,-0.00426106,6.15,2.4,68.85,-0.0886157,0.276625,10.225
18234204,0.0980043,0.0298274,0.00532632,5.4,2.4,68.55,0.299377,-0.0682581,10.3017
18246372,-0.0138484,0.0319579,-0.02024,5.1,3,68.55,0.531694,-0.338895,9.81071
18269203,0.1012,-0.0223706,-0.0245011,5.85,2.7,70.35,0.907712,0.104183,10.3065
18282377,0.0894822,-0.0213053,0.0127832,4.95,2.85,69.45,0.251477,0.262255,10.0933
18305203,0.143811,-0.0213053,0.0191748,5.25,2.55,69.75,0.684976,0.698148,10.6729
18318376,0.117179,0.0372843,0.0372843,6,2.85,68.4,0.526904,0.738864,10.0861
18341203,0.107592,0.0479369,0.0181095,5.4,4.2,69.9,0.862207,0.89454,10.8046
18353375,0.0170442,-0.00745685,-0.0490022,4.5,3.3,69.45,0.838257,0.825084,9.96159
18376203,-0.0245011,0.0447411,-0.0447411,7.05,2.1,69,-0.203577,0.434696,10.3065
18389376,0.0553937,0.0873517,0.00106526,7.05,3.3,68.7,-0.783171,0.211959,10.1628
18412209,-0.0340885,0.170442,0.0255663,5.4,3.75,70.35,-0.589175,0.0155676,9.98075
18424379,-0.00745685,0.0958738,0.0149137,6.15,2.4,68.85,-0.0742456,0.508942,10.5412
18447203,0.0308927,0.0756338,-0.015979,5.25,3.6,69.75,-0.122146,0.96639,10.1556
18460384,0.036219,0.100135,0.0330232,5.85,3,69.6,0.249082,0.688568,10.6873
18473379,0.036219,0.056459,-0.0372843,5.7,3.3,69.75,0.141306,1.62023,9.99273
18496203,-0.0127832,0.0862864,-0.0276969,5.25,4.05,69.45,-0.193997,0.281415,10.2825
18508377,0.00958738,0.0628506,-0.0106526,6,4.05,69.45,0.0646655,0.513732,10.2227
18531210,0.052198,0.0809601,0.0106526,6,3.3,69.75,-0.117356,1.27295,10.6609
18544379,0.02024,0.0905475,-0.0117179,6,4.05,68.4,0.593965,0.602347,10.1652
18567203,0.0575243,-0.00639159,-0.00213053,5.4,4.2,69.9,0.656235,0.0898132,10.2873
18579382,0.0213053,0.0585895,-0.0330232,5.85,3.45,68.25,0.126936,1.26816,10.2203
18602203,-0.0276969,0.0639159,-0.0170442,7.35,2.85,69.45,-0.65384,0.104183,10.1843
18614378,0.00532632,0.0383495,-0.0170442,6.9,3,69.9,-0.787961,-0.324525,9.89932
18637217,0.0553937,0.0980043,-0.00958738,5.7,3.6,69,-0.376018,0.453856,10.4071
18650378,0.0628506,0.0234358,0.0149137,6.75,3.6,69.75,0.0550855,-0.32692,10.0502
18673203,-0.0713727,0.0617853,0.0127832,5.25,4.05,67.95,0.316143,0.25986,10.2849
18685378,-0.0617853,0.0106526,0.00745685,7.35,4.35,70.5,-0.268242,0.319735,10.2562
18708209,-0.00213053,-0.015979,0.0127832,7.35,3.6,69,-0.102986,0.616718,10.2107
18721379,-0.0340885,0.0117179,0.00745685,5.4,2.7,70.65,-0.359253,0.310155,10.1604
18734377,0.0287621,0.0287621,0.00639159,5.25,4.35,69.75,-0.246687,0.36045,10.2083
18757217,0.00319579,0.0383495,0.00639159,6.45,4.2,70.65,-0.301772,0.427511,10.1245
18770379,0.0170442,0.0276969,-0.00639159,6.15,2.7,68.85,-0.392783,0.583187,10.2729
18793203,-0.0117179,0.0213053,0.0117179,6.3,4.05,70.05,-0.395178,0.484991,10.225
18805377,-0.0106526,0.0170442,0.0127832,6,4.05,69.75,-0.287402,0.578397,10.2538
18828209,-0.0458064,-0.0127832,-0.00106526,6.75,4.35,69,-0.292192,0.523312,10.2274
18840382,-0.0458064,-0.0117179,0.00532632,5.4,3.45,69.6,-0.486189,0.204774,9.88735
18863203,-0.0170442,-0.02024,0.00106526,6.15,3.45,69.3,-0.409548,0.367636,10.3256
18875382,-0.0138484,-0.00106526,0.00426106,6.45,3.45,70.35,-0.352068,0.36524,10.0071
18898203,-0.00852211,0.0191748,0.00532632,4.8,2.7,69.3,-0.294587,0.513732,10.2897
18910378,0.00532632,0.0170442,0.0127832,6.45,4.5,69.6,-0.285007,0.432301,10.1771
18933235,-0.0191748,0.00852211,0,6.75,3.3,71.1,-0.261057,0.456251,10.2107
18946378,-0.00532632,-0.02024,0,4.95,4.35,69.75,-0.347278,0.2886,10.0191
18969203,0.0127832,0.00639159,0.00532632,4.8,3.75,69.6,-0.352068,0.439486,10.3328
18982378,0.00213053,0.0223706,0.00639159,6.45,3.75,69.3,-0.364043,0.432301,10.1101
19005209,0.00426106,0.015979,0.00639159,6,3.6,70.05,-0.371228,0.417931,10.3185
19017379,0.0191748,0.0266316,0.00852211,5.7,2.85,69.75,-0.287402,0.367636,10.1652
19040203,0.0138484,0.0255663,0.0106526,6,4.35,69.45,-0.368833,0.374821,10.2562
19052472,0.00213053,0.0181095,0.00745685,5.25,4.35,69.45,-0.335303,0.415536,10.0502
19075203,0.0234358,0.0149137,0.00852211,5.7,2.85,70.5,-0.268242,0.458646,10.2634
19088377,0.0255663,0.00426106,0.00639159,5.7,3.6,70.05,-0.256267,0.382006,10.1748
19101377,0.0287621,0.0276969,0.00213053,8.55,3.3,70.05,-0.174836,0.559237,10.2179
19124202,0.015979,0.0639159,0.0127832,5.7,3.6,69.45,-0.107776,0.405956,10.0766
19136377,0.0191748,0.0511327,0.00319579,5.85,3.45,69.6,-0.423918,0.528102,10.2897
19159203,0.0330232,0.0138484,0.00426106,5.85,4.95,69.6,-0.407153,0.587977,10.1724
19172530,0.0234358,0.0127832,0.0138484,5.25,4.05,69.45,-0.373623,0.667013,10.1412
19195202,0.0490022,0.0681769,0.0138484,6.45,3,69.6,-0.294587,0.892145,10.1963
19207375,0.04048,0.16192,0.00319579,6.75,3.6,70.5,-0.340093,0.676593,10.352
19230204,0.0756338,0.168312,0.00639159,5.1,4.2,71.4,-0.270637,0.667013,10.4645
19243379,0.0649811,0.0894822,-0.00319579,6.15,3.45,69.9,-0.162861,0.0323328,10.0622
19266202,0.0117179,0.0585895,-0.00213053,6.3,4.05,70.8,-0.198787,0.36045,10.2586
19278361,0.0308927,0.0447411,0.0319579,6.15,3.45,70.65,-0.490979,0.410746,10.1029
19301261,0.0735032,0.0372843,0.0234358,6.9,4.95,70.65,-0.251477,0.523312,10.1987
19314378,0.0894822,0.0308927,0.0223706,6.9,4.5,70.65,-0.294587,0.480201,10.2083
19337204,0.12144,0.00213053,0.0340885,7.2,4.95,68.85,-0.409548,0.765209,10.1484
19349355,0.137419,-0.0298274,0.0298274,6.9,3.75,68.85,-0.570015,0.657433,10.079
19372202,0.183225,-0.0649811,0.0308927,7.2,3,69.3,-0.392783,0.477806,10.2227
19384369,0.18003,-0.0713727,0.0255663,6.3,4.8,69.45,-0.411943,0.743654,10.2083
19397657,0.22051,-0.0543285,0.0213053,6.9,4.2,70.35,-0.215552,0.659828,10.1316
19420263,0.214118,-0.0319579,0.0138484,6.9,4.95,70.65,-0.376018,0.662223,10.0742
19433373,0.28336,0.00958738,0.0234358,6.15,4.95,69.6,-0.450264,0.480201,10.0311
19456206,0.418649,0.0117179,0.015979,4.8,5.7,69.6,-0.220342,0.111368,10.0526
19468348,0.561394,0.0809601,0.0234358,7.05,6.15,68.7,-0.222737,0.628693,10.0071
19491202,0.691357,0.190682,0,6.9,6,69.9,-0.0335303,0.772394,9.89932
19503369,0.826645,0.292948,-0.0287621,7.8,7.65,69.75,-0.0263452,0.180824,9.93525
19526204,1.11533,0.366451,0.00426106,7.95,7.5,69.6,-0.0239502,0.714913,9.6694
19538375,1.05461,0.428236,0.02024,6.75,8.1,68.7,-0.376018,0.940045,10.1245
19561210,1.41148,0.465521,0.00532632,7.05,9.6,68.7,-0.778381,1.91242,10.2634
19573354,1.33052,0.517718,0.0117179,6.15,10.8,68.55,-0.61552,1.12207,9.61432
19596268,1.51694,0.487891,-0.04048,8.25,12.3,68.85,-0.579595,1.37115,10.3113
19609369,1.60535,0.494283,0.0191748,7.95,12.75,68.85,-0.756826,2.11121,10.6633
19632206,1.65542,0.46339,0.0340885,7.65,14.85,68.85,-0.732876,2.39143,11.0801
19644352,1.57233,0.314253,0.0181095,9.3,15.6,67.2,-1.1065,2.69799,11.3124
19668235,1.62772,0.178964,0.0490022,9,17.85,67.5,-1.60227,3.04048,10.7639
19681376,1.64583,-0.0340885,-0.0330232,9.9,19.2,67.95,-1.74836,3.44284,10.9436
19694374,1.54144,-0.236489,-0.0862864,10.05,20.1,66.45,-1.58071,3.73264,10.3185
19717226,1.50309,-0.294013,-0.0756338,9.15,21.75,66.3,-1.38432,4.0416,10.34
19730378,1.36354,-0.306796,-0.0873517,8.1,24.3,64.2,-0.728086,3.85718,10.0454
19753203,1.22932,-0.302535,-0.0958738,8.85,23.7,64.95,-1.17835,3.98891,10.2011
19765377,0.912932,-0.269512,-0.076699,9,24.9,64.05,-0.0550855,3.16741,10.6035
19788209,0.679639,-0.264186,0.0660464,7.65,24.9,63.3,0.907712,1.64418,10.4981
19801379,0.291882,-0.262055,0.288687,9.75,26.1,63,1.14482,0.475411,9.47541
19824203,0.0127832,-0.312122,0.421845,8.1,25.8,61.8,-0.56762,0.367636,12.4931
19836382,-0.6839,-0.286556,0.396278,6.75,25.05,62.4,-0.958008,-0.00359253,8.58446
19859203,-0.618919,-0.315318,0.287621,6.9,26.1,60.9,-1.52323,-0.252675,9.27183
19871378,-0.653007,-0.268447,0.178964,7.95,24.9,61.5,-1.59508,0.147294,9.21195
19894235,-1.1164,-0.169377,0.0490022,6,23.25,60,-1.62622,0.221539,10.352
19907378,-1.10681,-0.0703075,-0.0372843,5.85,21.6,60.15,-1.29571,0.240699,9.49217
19930203,-1.29962,0,-0.0585895,5.7,19.2,58.95,-0.840652,0.415536,10.0718
19942378,-1.47006,0.0117179,-0.0287621,5.1,18.3,60.15,-0.332908,0.461041,10.9915
19965214,-1.62453,0.052198,0.0500674,6.3,17.4,60.3,-0.526904,0.662223,11.3938
19978379,-1.877,0.0553937,0.0511327,5.7,15.9,59.7,-1.11129,1.02148,11.4705
20001203,-1.90043,0.00745685,-0.00745685,7.05,13.65,57.6,-1.30529,1.59628,11.3579
20013451,-1.91641,0.0191748,-0.0287621,5.4,11.55,58.35,-0.929268,1.9244,10.5316
20026377,-1.81841,0.052198,-0.00213053,7.05,11.4,55.8,-0.893342,2.18546,11.0465
20049203,-1.72892,0.0245011,-0.0117179,6.75,11.1,56.85,-1.07297,2.12079,10.6538
20061376,-1.67566,0.0351537,-0.0585895,6.9,10.5,54.9,-1.49689,2.57105,11.7722
20084209,-1.69271,0.0426106,-0.205596,7.8,9.15,55.05,-1.88728,3.08838,11.777
20097382,-1.7449,0.0383495,-0.361125,7.95,7.2,54.3,-1.16637,3.00216,10.455
20120203,-1.42319,0.0447411,-0.376038,7.95,7.5,54.3,-0.543669,2.78421,10.0095
20133408,-1.34543,0.056459,-0.320645,7.65,7.95,54.9,-0.0479004,2.46088,10.3759
20156203,-1.2144,0.0660464,-0.206661,6.15,6.75,53.55,0.66342,1.95553,10.3352
20169378,-1.08231,0.0287621,-0.107592,7.35,7.35,55.05,0.184417,1.38552,10.055
20192218,-0.997087,-0.0245011,-0.0351537,7.05,7.65,54.45,0.0622705,1.06459,11.2573
20205378,-1.10681,0,-0.00532632,6.45,6,52.8,-0.371228,0.758024,11.0441
20218371,-1.15262,0.00958738,-0.0458064,7.05,6.9,55.5,-0.888552,0.372426,10.4406
20241203,-1.03118,0.0415453,-0.0703075,7.8,7.65,53.4,-0.65863,0.125739,10.2897
20253455,-1.07911,0.0617853,-0.0639159,7.65,7.2,53.85,-0.59636,-0.00119751,10.2777
20276209,-0.940628,0.0681769,-0.0394148,7.05,6.15,54,-0.543669,-0.257465,9.95681
20288371,-0.854342,0.0607201,-0.0245011,7.05,6.9,53.7,-0.617915,-0.415536,9.49696
20311203,-0.803209,0.00213053,-0.0330232,7.35,5.85,54,-0.66342,-0.544867,9.06586
20324379,-0.526241,-0.0394148,-0.0181095,9.6,6.9,54.45,-0.486189,-0.211959,11.2765
20347203,-0.86606,0.092678,0.0255663,7.95,7.5,53.25,-0.158071,-0.0754431,11.0825
20359377,-0.804275,0.296144,0.0948085,7.8,6.6,54.45,-0.237107,0.00598755,11.7483
20382217,-0.883104,0.377104,0.0649811,8.85,6.15,54.45,-1.42025,0.712518,11.0441
20394379,-1.02052,0.247141,-0.0681769,7.35,5.1,55.5,-1.66933,0.425116,10.2274
20417203,-0.638093,0.0532632,-0.149137,8.25,5.7,55.65,-0.627495,0.473016,9.37961
20429377,-0.844755,-0.0543285,-0.14168,8.85,4.8,56.85,-0.603545,0.659828,10.4262
20452209,-0.653007,-0.192813,-0.110787,8.25,4.2,57.3,-0.6251,0.504152,9.13771
20465382,-0.52411,-0.237554,-0.0330232,8.85,5.85,55.5,0.184417,0.389191,8.64433
20488203,-0.15979,-0.167247,0.133158,8.55,5.55,56.55,0.387993,0.810714,10.4214
20500382,-0.577373,0.0436758,0.272708,6.75,4.8,57.15,-0.141306,0.583187,10.7328
20523203,-0.497478,0.147006,0.251402,6.45,4.5,57.75,-1.76752,0.0467029,9.34847
20535378,-0.279099,0.0681769,0.0671117,7.35,5.1,57.6,-2.28006,-0.166454,8.41681
20558220,-0.28123,0.0532632,-0.0937433,8.1,5.1,57.6,-1.6334,-0.26944,9.861
20571378,-0.271642,0.115049,-0.150202,7.35,2.85,58.65,-0.756826,-0.125739,9.53768
20584377,-0.254598,0.142745,-0.136354,7.95,4.95,57.75,-0.225132,-0.166454,8.25874
20607203,-0.076699,0.11931,-0.0873517,9.15,3.3,57.6,0.0383203,0.0371228,8.0336
20620384,0.11931,0.0798948,-0.02024,7.05,4.05,59.7,0.325723,0.243094,7.76776
20643203,0.215183,0.015979,0.0841559,8.7,4.5,58.35,-0.0383203,0.231119,8.61799
20656377,0.658333,-0.218379,-0.00639159,7.05,6.6,59.25,-2.90516,0.853824,5.61224
20679217,1.50522,-0.399474,0.036219,6.9,5.7,59.1,1.05381,-0.659828,12.0764
20692379,0.309992,-0.254598,0.0692422,7.8,6.15,59.25,0.426313,-2.76984,13.1374
20715203,0.388821,-0.185356,0.0330232,6.15,7.95,58.8,1.1065,-2.59261,12.2536
20727377,0.191748,0.0649811,0.0820254,7.05,7.65,57.15,0.263452,-1.91242,7.20732
20750209,0.867125,0.0213053,0.0916127,7.8,6.9,58.95,0.843047,-1.57233,12.1243
20762382,0.125701,0.3036,0.22051,6.45,7.95,58.05,0.716111,-1.83578,9.35805
20785203,0.642354,0.229032,0.268447,6.45,8.7,58.05,0.275427,-2.15911,9.45385
20798382,0.491087,0.322775,0.315318,5.85,9,57.75,-0.826282,-2.07528,8.63475
20811379,0.901214,0.216249,0.288687,6.9,9.75,57.3,-2.17468,-1.69448,11.1591
20834203,0.410127,0.137419,0.223706,7.05,9.6,57.6,-2.87642,-1.76154,9.06346
20846378,1.15155,-0.0671117,0.0298274,7.65,11.55,56.7,-3.34105,-1.00232,9.04191
20869209,0.76699,-0.160855,-0.116114,6.9,11.55,57.75,-2.53393,-1.09812,10.1604
20881379,0.896953,-0.268447,-0.187487,6.9,11.55,57.3,-1.73639,-1.1053,10.17
20904203,0.887365,-0.314253,-0.219444,7.05,13.65,56.55,-1.31008,-0.901725,9.08741
20916384,1.04396,-0.406931,-0.248207,6,13.65,57.6,-0.376018,-0.549657,10.8789
20939203,0.975782,-0.4048,-0.20027,6.75,13.95,56.55,-0.112566,0.0419128,10.3687
20951377,0.903344,-0.42291,-0.160855,6.45,14.55,57,-0.225132,0.523312,12.2177
20974238,0.617853,-0.369647,-0.14168,6.15,17.1,55.65,-0.0646655,0.401166,10.9603
20987379,0.698813,-0.34408,-0.144876,4.2,18.45,55.8,0.479004,0.223934,10.9507
21010203,0.497478,-0.32384,-0.0788296,6.15,17.85,57,0.519719,0.180824,11.1807
21022377,0.428236,-0.297209,-0.0426106,6,17.7,55.8,-0.0215552,0.166454,10.9579
21045214,0.393083,-0.262055,-0.0276969,4.8,17.55,54.6,0.411943,0.24549,10.5747
21058382,0.312122,-0.196009,-0.0255663,4.05,19.35,54.3,0.373623,0.161664,11.1519
21081203,0.369647,-0.0830906,0.0181095,4.2,18.45,56.55,0.773591,0.743654,11.1783
21094404,0.0106526,0.0287621,0.0351537,4.05,19.35,55.35,0.205972,0.427511,10.8214
21107677,0.267381,0.0223706,0.0234358,5.4,19.8,55.35,0.0359253,0.353265,10.6083
21130203,0.00319579,0.0447411,0.00106526,3.6,20.55,54.6,0.170046,0.286205,10.2203
21143377,0.150202,0.0511327,0.00532632,5.1,18.6,54.9,0.124541,0.508942,10.4981
21166209,-0.00532632,0.015979,-0.00639159,4.05,19.8,54.3,0.0479004,0.116158,10.0957
21179379,0.117179,-0.0415453,0.00426106,4.05,20.55,54.3,0.0790356,-0.235909,9.88735
21202203,0.123571,-0.00745685,0.0191748,3.6,20.85,53.85,0.457449,0.223934,10.364
21215384,0.0937433,0.0777643,0.0266316,4.2,20.25,53.4,0.407153,0.623903,10.6585
21238203,0.0788296,0.0980043,0.00958738,5.4,20.1,53.85,0.0766406,0.26944,10.5436
21250377,0.113983,0.0713727,-0.00319579,3.9,20.25,54.45,-0.486189,0.655038,9.97118
21273244,0.00852211,0.112918,0.00213053,4.95,21.45,54,-0.881367,-0.00838257,10.2274
21286382,0.135289,0.0852212,0.0191748,4.8,20.55,53.55,-0.668211,-0.056283,10.079
21299376,-0.0117179,0.132093,0,5.25,20.25,54,-0.253872,0.27902,10.4645
21322203,0,0.138484,0.0170442,3.9,21.75,54.75,0.0934058,0.537682,9.95201
21334418,0.056459,0.150202,0.00106526,4.8,20.55,54.3,-0.160466,0.604742,10.5771
21357203,-0.0511327,0.18003,0.0170442,5.1,21.6,53.85,-0.313748,0.614323,10.0191
21370378,0.0628506,0.15979,-0.0276969,4.95,22.2,53.7,-0.241897,0.810714,9.69096
21393244,0.135289,0.232228,-0.0553937,5.1,20.85,53.25,-0.426313,0.338895,10.5196
21406379,0.0575243,0.190682,-0.0266316,4.35,21.15,56.25,-0.524509,0.590372,10.079
21429203,-0.015979,0.20027,-0.0436758,4.8,20.55,56.25,-0.855022,0.24549,10.1221
21441378,0.0585895,0.190682,-0.0330232,5.7,22.2,54.75,-0.196392,-0.604742,10.558
21464217,-0.0223706,0.190682,0.0308927,7.35,20.7,55.05,-0.701741,0.496967,10.1891
21477379,0.0617853,0.15979,0.0191748,6,21.45,54.75,-0.795147,0.619113,10.4095
21500203,0.0372843,0.144876,-0.00319579,6,21,54,-0.598755,0.528102,10.0622
21512406,-0.0191748,0.076699,-0.0298274,7.05,21,54,-0.768801,1.26337,10.2514
21535203,0.0894822,0.118244,0.00106526,6,20.7,54.45,-0.730481,0.700543,10.2107
21548371,-0.0394148,0.105461,-0.0234358,6.45,23.1,54.6,-0.922083,-0.0969983,10.261
21561377,0.0479369,0.0820254,-0.0106526,4.8,21.9,53.85,-1.09692,-0.0922083,10.1053
21584217,-0.0319579,0.0692422,-0.00319579,5.25,21.75,54,-0.888552,0.295785,10.2801
21597382,0.036219,0.0479369,0.00106526,6.75,22.2,54.75,-0.747246,0.537682,10.1269
21620203,0.00106526,0.0351537,0.00745685,6.75,22.2,55.05,-0.62031,0.437091,10.2418
21632406,0.0479369,0.00319579,0.0223706,7.05,21.75,53.7,-0.534089,0.26944,10.1364
21655204,0.0117179,-0.0127832,0.0223706,5.85,22.35,54.3,-0.428709,0.662223,10.2993
21668371,0.0234358,-0.0117179,0.0181095,5.85,21.15,53.55,-0.404758,0.561632,10.2801
21691203,-0.0223706,-0.00639159,0.0127832,6.45,20.1,55.35,-0.502954,0.508942,10.1628
21704379,0.00426106,-0.0170442,0.00958738,5.85,21.6,54.3,-0.512534,0.576002,10.2825
21727203,-0.0149137,-0.0213053,0.0127832,6.75,21.75,53.7,-0.488584,0.566422,10.1652
21739378,-0.0149137,-0.0415453,0.00639159,6,22.5,55.5,-0.342488,0.420326,10.3089
21762217,0.00213053,-0.0553937,0.0117179,7.05,22.2,55.5,-0.725691,0.542472,10.1173
21775378,-0.0245011,-0.0681769,0.0127832,5.7,22.2,54,-0.476609,0.690963,10.2969
21788375,0.00213053,-0.0735032,0.0149137,5.1,21.9,54.9,-0.479004,0.580792,10.2993
21811203,-0.0223706,-0.0500674,0.0255663,5.7,22.2,54.75,-0.191602,0.518522,10.0837
21824379,-0.0340885,-0.0490022,0.0138484,6.9,21.9,53.25,-0.335303,0.547262,10.1795
21847203,0.00852211,-0.0436758,0.015979,6.15,23.1,53.55,-0.510139,0.525707,10.17
21859377,-0.0138484,-0.0490022,0.00852211,5.4,21.6,53.85,-0.342488,0.573607,10.2035
21882217,-0.0223706,-0.0628506,0.0127832,5.7,21.75,55.05,-0.385598,0.494572,10.1388
21895379,-0.0170442,-0.0372843,0.00852211,5.1,21.6,53.55,-0.347278,0.664618,10.2993
21918203,-0.00319579,-0.052198,0.00958738,6.45,21.9,53.55,-0.447869,0.441881,10.0598
21930382,0.00852211,-0.0276969,0.00106526,5.1,21.15,54.3,-0.6251,0.482596,10.4071
21953204,-0.00745685,0,0.015979,5.85,22.65,53.85,-0.368833,0.674198,10.0981
21965379,0.0181095,-0.0255663,0.00319579,5.25,21.75,54.45,-0.304167,0.650248,10.3352
21988203,0.00426106,0.0127832,0.0127832,5.25,21.45,53.4,-0.270637,0.391586,10.0885
22000382,0.00319579,0.0117179,0.00639159,7.2,23.1,55.35,-0.371228,0.530497,10.2801
22023203,-0.015979,0.0127832,0.00426106,6.3,21.75,53.7,-0.344883,0.410746,10.1269
22035377,-0.00319579,-0.0298274,0.00319579,6.15,20.85,53.55,-0.119751,0.494572,10.2418
22058217,-0.0308927,-0.0106526,0.00319579,5.25,21,54.45,-0.380808,0.389191,10.17
22071378,0.00319579,-0.0149137,0.00745685,6,22.2,53.4,-0.490979,0.576002,10.249
22094203,-0.00639159,0.0234358,-0.0106526,5.85,22.65,54.6,-0.512534,0.614323,10.237
22107377,0.0223706,0.00106526,0.0138484,5.85,21.9,53.55,-0.392783,0.2886,10.2059
22120382,-0.00852211,-0.0170442,0.0170442,5.4,20.85,53.55,-0.261057,0.0730481,10.1221
22143203,-0.00319579,-0.0127832,0.0181095,5.25,21.75,55.5,-0.244292,0.0538879,10.1292
22156378,-0.0117179,0.0298274,0.0276969,5.85,22.35,53.25,-0.189207,0.446671,10.3232
22179217,0.0213053,-0.0170442,0.0213053,6.75,21.45,54.45,-0.0622705,0.219144,10.1748
22192378,-0.00426106,0.0117179,0.0191748,5.1,22.35,53.85,-0.0479004,0.863405,10.0861
22215203,0.0383495,0.00958738,0.00852211,6.9,21.15,54.3,-0.165256,0.552052,10.3711
22228378,0.0553937,-0.036219,0.00532632,5.85,22.65,53.25,-0.459844,0.199984,10.067
22251209,0.0340885,-0.0894822,0.0266316,6.3,22.2,55.05,-0.493374,0.367636,10.3496
22263379,0.052198,-0.076699,0.0106526,6.15,21.6,52.8,-0.452659,0.676593,10.0406
22286203,0.0490022,-0.0713727,0.0308927,5.7,22.2,54,-0.222737,0.559237,10.352
22298384,0.0681769,-0.105461,0.00958738,5.1,21.15,55.35,-0.285007,0.32213,10.1795
22321203,0.0788296,-0.0830906,0.0181095,4.2,21.45,53.4,-0.155676,0.580792,10.2634
22334377,0.129962,-0.0394148,0.0468716,5.7,22.2,53.7,-0.213157,0.456251,10.1101
22347377,0.184291,-0.0543285,0.0490022,4.35,21.15,54.3,-0.318538,0.391586,10.2418
22370209,0.204531,-0.0585895,0.0500674,4.5,22.95,54,-0.340093,0.444276,10.2155
22383382,0.269512,-0.0543285,0.0351537,5.7,21.45,55.05,-0.256267,0.276625,10.0263
22406203,0.269512,-0.0117179,0.0191748,4.5,21,53.7,-0.167651,0.626298,10.0885
22418382,0.372843,-0.0170442,0.00639159,5.4,22.35,53.25,-0.122146,0.655038,10.067
22441203,0.516653,0.0447411,0.0351537,5.25,22.2,53.4,-0.285007,0.587977,9.93046
22454378,0.72438,0.103331,0.0223706,5.25,24.3,54,-0.172441,0.276625,9.76041
22477217,0.907605,0.186421,0.0255663,5.1,24.15,51.75,-0.105381,0.393981,9.67898
22490378,1.13025,0.309992,0.00852211,5.7,24.75,53.4,-0.337698,0.693358,10.0239
22503675,1.34649,0.372843,-0.00639159,4.95,25.05,52.35,-0.330513,0.798739,9.76999
22526203,1.58405,0.476173,0.00639159,4.35,25.35,51.75,-0.00718506,1.14362,9.92088
22538382,1.88126,0.579504,0.0372843,5.1,26.1,51.75,-0.0598755,1.6346,9.98075
22561203,2.18379,0.664725,0.108657,4.95,27.75,51.3,-0.268242,2.07768,10.4143
22574377,2.5854,0.696683,0.174703,6.45,29.4,50.1,-0.399968,2.44412,11.4944
22597217,2.65677,0.6839,0.32171,6.3,32.85,49.5,-0.711321,2.28126,13.2404
22610379,2.62375,0.60294,0.378169,7.2,33.45,49.05,-0.979563,3.43087,11.3531
22633203,2.82828,0.54435,0.455933,6.9,33.45,47.55,-2.02619,3.28237,11.5758
22646377,2.74519,0.481499,0.491087,6,37.65,44.25,-1.84417,3.62247,12.8787
22669209,2.60244,0.455933,0.470847,7.05,39.15,43.95,-1.03465,4.46312,11.6764
22681382,2.20297,0.486826,0.52198,6.3,39.15,41.85,-0.617915,4.4703,12.2273
22704203,2.13266,0.380299,0.462325,6.75,41.7,41.1,-1.06818,3.11712,10.4166
22716382,1.43811,0.171508,0.386691,6.3,44.4,40.05,-2.692,1.88368,12.7733
22739203,1.36673,-0.0969391,0.437824,5.4,43.5,39.15,-0.5772,0.484991,13.2045
22751378,-0.390952,-0.107592,0.540089,5.1,43.05,39.15,1.57113,-1.61065,10.9459
22774234,0.199204,-0.132093,0.697748,6,45.15,38.7,0.752036,-1.42623,8.25634
22787378,-0.823449,-0.0735032,0.707336,5.85,46.05,39.15,-0.819097,-0.93765,8.91976
22800377,-0.770186,-0.140615,0.540089,4.95,46.65,40.8,-2.16989,-1.1532,9.85621
22823203,-1.46367,-0.117179,0.274838,3.6,45.3,42,-2.61297,-0.92328,7.65519
22835404,-1.5212,-0.0852212,0.015979,3.9,46.95,41.85,-2.34472,-0.683778,9.65503
22858203,-1.88019,-0.00958738,-0.174703,3.3,46.35,44.85,-2.28964,0.0347278,9.57839
22871377,-2.38832,-0.0223706,-0.295078,2.25,48.3,45.45,-1.54,0.528102,10.5148
22894241,-2.38193,0.0490022,-0.259925,1.95,46.05,49.65,-0.905317,1.08854,9.11855
22907379,-2.44904,0.149137,-0.234358,1.5,47.55,52.8,-2.21539,2.25491,10.2107
22930203,-2.48313,0.258859,-0.469782,1.35,45.9,56.85,-3.55421,4.21883,12.7542
22942377,-2.95824,0.249272,-0.976847,3,45.3,60.9,-5.53489,5.80912,12.565
22965214,-2.74945,0.076699,-1.53718,4.8,45.6,64.05,-4.00208,6.72402,10.6178
22977382,-2.58327,-0.02024,-1.74916,4.05,43.5,68.25,-1.14242,7.51916,10.4166
23000203,-2.30097,-0.0809601,-1.52972,4.5,38.85,73.95,0.732876,6.97549,10.1508
23012408,-1.98778,-0.16192,-1.05568,6.9,38.25,76.2,0.912502,6.24741,11.7483
23035204,-1.93772,-0.192813,-0.570982,8.1,36.15,77.4,0.320933,5.79714,12.2081
23047371,-1.98778,-0.0894822,-0.243946,7.95,34.5,78.3,0.0670606,5.45705,13.0679
23070203,-2.07194,0.0777643,-0.0415453,7.35,29.55,81.3,-0.747246,5.36844,12.8572
23083374,-2.00589,0.116114,0.0276969,9.3,27.15,82.8,-1.11368,4.25475,8.95808
23106203,-1.71401,0.0830906,0.0383495,8.85,25.5,82.05,-1.34121,3.29674,9.54007
23118376,-1.23251,0.0585895,0.0276969,7.65,24.9,83.85,-1.53281,3.08598,9.21914
23141217,-1.30495,0.0106526,-0.0276969,9.9,20.25,84.75,-1.91362,2.51836,9.12573
23153378,-0.66366,-0.0468716,-0.092678,9.9,20.25,86.25,-2.00942,2.54471,10.7831
23166674,-1.06739,0.0756338,-0.156594,8.7,18.6,85.65,-2.13875,2.94228,12.8931
23189203,-1.48285,0.167247,-0.274838,9.3,17.55,84.9,-2.60099,2.35311,12.0548
23211203,-1.3433,0.00319579,-0.414388,10.2,13.65,86.85,-2.05493,1.42384,7.92583
23224379,-1.07379,-0.0213053,-0.366451,10.95,12.45,87.9,-0.55325,1.17236,8.79043
23237377,-0.895887,0.109722,-0.186421,11.4,12.45,87.3,0.107776,1.28732,9.72688
23260217,-0.982174,0.190682,-0.0319579,11.55,10.5,88.05,-0.0981958,0.9137,8.66349
23273379,-0.751011,0.201335,0.0276969,11.1,8.25,88.8,-1.01309,0.760419,9.15687
23296203,-0.667921,0.12144,-0.0170442,12.15,7.5,89.1,-1.09692,0.992736,9.76999
23308377,-0.836233,0.0692422,-0.0436758,11.1,8.7,88.8,-0.905317,0.635878,9.28141
23331210,-0.614658,0.0287621,-0.00319579,11.7,5.1,88.65,-0.474214,0.374821,8.67547
23344379,-0.439954,0.0852212,0.113983,12,5.55,89.4,-0.294587,0.319735,7.94259
23367203,-0.290817,0.122505,0.226901,12.45,4.8,89.7,-0.59157,0.473016,9.29338
23379382,-0.234358,0.158724,0.316384,13.5,2.55,89.4,-0.938848,0.420326,8.79283
23402203,-0.167247,0.0713727,0.239684,14.25,3.6,88.65,-3.0297,0.520917,8.1342
23415378,0.529436,-0.374973,-0.206661,13.95,3,90.15,-3.00096,1.13404,6.37865
23428377,0.520914,-0.208792,-0.217314,13.35,4.2,89.85,0.816702,0.377216,11.2669
23451209,0.247141,-0.166181,-0.247141,12.45,6.6,90,-0.505349,-2.71954,11.4944
23464379,0.226901,-0.185356,-0.245011,12.45,5.1,90.3,0.936453,-3.67755,11.1064
23487203,0.132093,0.0149137,-0.0980043,12.75,6.9,90.75,1.26936,-2.82972,9.11136
23499384,0.481499,0.0692422,0.0713727,12,6.6,90,1.6837,-2.06331,9.66461
23522203,0.388821,0.203465,0.255663,11.7,6.9,90.3,1.60706,-2.15911,9.89453
23534377,0.459129,0.201335,0.452737,12.15,6.75,91.2,0.651445,-2.36987,10.2035
23557217,0.626375,0.0809601,0.574178,12.75,8.1,91.8,-0.881367,-0.748444,14.1816
23570379,-0.397344,0.105461,0.610397,12.45,8.4,90,-1.98547,-1.57712,9.65743
23593203,0.485761,-0.0415453,0.497478,13.5,8.4,91.35,-3.67875,-1.96511,9.36045
23605377,0.0628506,-0.0330232,0.312122,12,8.1,91.35,-4.58646,-1.64658,9.60713
23628209,0.34195,-0.108657,0.0585895,13.5,8.4,91.05,-4.45953,-1.85973,9.15208
23640382,0.386691,-0.231162,-0.0575243,12.45,10.65,90.75,-2.62015,-1.97469,8.43357
23663203,0.461259,-0.360059,-0.0660464,13.35,10.5,92.7,-0.960403,-1.50766,10.8837
23675382,0.38243,-0.330232,-0.0340885,11.4,10.65,91.35,-0.687371,-1.57233,9.02993
23698203,0.40267,-0.324906,-0.0191748,12,11.4,90.3,-0.483794,-1.75675,9.78436
23710378,0.70414,-0.294013,0.0372843,9.75,12,90.9,-0.570015,-1.86931,9.59995
23733261,0.495348,0.0149137,0.273773,9.9,11.85,89.4,-2.04295,-1.42384,10.2011
23746379,0.539024,-0.0287621,0.360059,9.6,14.4,91.05,1.62622,-1.35917,9.97836
23769203,0.469782,-0.0948085,0.327036,8.1,13.95,90.75,1.23823,-1.33043,8.92695
23781378,0.511327,-0.072438,0.203465,8.85,15.15,90.75,-0.819097,-0.901725,11.2741
23804217,0.438889,-0.135289,0.100135,9.3,15.3,91.2,-1.09931,-0.489782,10.7328
23816379,0.385626,-0.126766,0.0735032,7.95,16.35,91.65,-0.977168,-0.822689,9.40116
23829675,0.50174,-0.104396,0.0351537,8.55,16.95,91.05,-0.929268,-0.916095,10.1484
23852213,0.567786,-0.148072,0.036219,9,16.8,91.2,-1.00112,-0.808319,9.32452
23865378,0.60507,-0.211988,0.00532632,9,17.55,90.9,-1.28852,-0.671803,9.88256
23888203,0.680704,-0.268447,-0.0106526,7.95,19.05,91.2,-1.30529,-0.461041,10.0694
23900377,0.600809,-0.282295,-0.0117179,7.2,21.6,90.15,-1.13045,-0.35087,9.94962
23924223,0.719053,-0.419714,-0.0543285,6.45,20.85,89.55,-1.54239,-0.101788,10.0406
23937382,0.612527,-0.4048,-0.0426106,7.05,22.5,90,-1.55916,0.183219,10.8645
23960203,0.610397,-0.460194,-0.0788296,6.3,22.95,89.7,-0.950823,0.724493,11.2621
23972422,0.407996,-0.389887,-0.0884169,5.1,23.4,88.8,-0.201182,0.370031,10.9507
23995204,0.399474,-0.40267,-0.04048,5.1,24.9,89.85,-0.201182,0.0227527,10.3951
24008374,0.409062,-0.44528,-0.0681769,5.1,24.9,90.15,-0.107776,-0.128134,9.49936
24021377,0.714792,-0.331297,-0.0415453,4.95,25.5,90.75,1.05141,0.619113,12.2943
24044217,-0.274838,-0.148072,0.0468716,3.6,27.9,88.8,0.613125,-0.164059,10.4262
24056382,0.569916,-0.183225,-0.0106526,2.85,27,88.65,0.0670606,0.34608,11.0106
24079203,-0.147006,-0.0287621,0.0245011,3,27.15,88.5,0.55325,0.482596,10.0119
24091378,0.413323,-0.0575243,0.00106526,3.15,28.8,88.95,-0.340093,0.185614,10.4741
24114204,-0.117179,0.188552,0.0639159,3.45,28.8,88.95,-1.03944,0.104183,8.92934
24126375,0.273773,-0.00532632,0.0511327,2.55,27.9,88.5,-2.23695,-0.427511,12.383
24149203,0.140615,-0.0266316,0.0607201,1.95,28.2,88.05,-1.12326,0.111368,8.62278
24161380,0.100135,0.0639159,0.0436758,3.15,29.25,88.95,-0.227527,0.837059,11.4824
24184203,0.0532632,0.0458064,-0.00319579,3.6,28.2,89.1,0.0550855,0.571212,9.44667
24197376,0.0330232,0.106526,-0.0181095,3.6,28.95,88.5,-0.486189,0.223934,10.8214
24220217,0.0127832,0.0692422,-0.0106526,3.45,28.5,90,-0.514929,0.449066,9.71012
24233378,0.153398,0.0617853,-0.00745685,3.15,28.5,88.95,0.0574805,0.760419,10.7136
24256203,0.00106526,0.0713727,0.00532632,3.45,29.25,87.9,0.402363,0.27423,9.79634
24268378,0.0735032,0.0447411,-0.0319579,4.05,28.95,88.5,0.421523,0.101788,10.5292
24291209,0.0138484,0.0692422,-0.00213053,3.45,29.25,89.4,-0.00718506,0.458646,10.0287
24303379,0.0170442,0.0330232,0.0319579,4.2,28.05,88.65,-0.627495,1.02627,10.6226
24326203,-0.0990696,0.0351537,-0.0138484,4.5,30.3,89.4,-0.637075,0.319735,9.79155
24338384,-0.0426106,0.0436758,0.02024,3.9,30.3,88.35,-0.617915,-0.0299377,10.3328
24361203,-0.00213053,0.0809601,-0.00319579,4.2,28.8,90.3,-0.229922,0.741259,10.1867
24373377,0.0383495,0.107592,0.00319579,3.9,28.05,87.9,-0.483794,0.638273,10.4526
24396217,0.0234358,0.0703075,-0.00213053,4.35,28.95,87.75,0.182021,-0.300575,9.92327
24409379,-0.02024,0.0873517,0.0127832,3.6,28.2,88.8,0.158071,0.295785,10.2706
24432203,0.00958738,0.04048,0.0170442,4.8,29.4,88.05,-0.100591,0.664618,10.2346
24444377,-0.00426106,0.0575243,-0.0138484,3.9,29.55,89.4,-0.256267,0.535287,10.1963
24467209,0.0788296,0.0490022,0,5.85,29.4,88.05,0.0215552,0.214354,10.2011
24480382,-0.0351537,0.0990696,-0.00213053,5.7,29.25,88.65,-0.229922,-0.0275427,9.99752
24493377,0.0191748,0.0575243,-0.0127832,4.05,30.15,89.85,-0.438289,0.0538879,10.2514
24516217,0.00745685,0.0490022,0.0149137,4.2,29.85,88.95,-0.479004,0.417931,10.1364
24529378,-0.0660464,0.0298274,-0.00319579,4.05,29.7,88.5,-0.61552,0.518522,10.2274
24552203,0.0649811,0.0191748,0.015979,5.25,28.5,89.4,-0.502954,0.784369,10.1604
24564377,-0.00213053,0.0415453,0.00532632,3,28.95,88.05,-0.265847,0.607138,10.1604
24587209,0.0500674,0.036219,0.00213053,4.2,28.5,88.35,-0.356858,0.384401,10.1436
24600382,0.0308927,0.0617853,0.00745685,4.2,28.5,88.65,-0.244292,0.389191,10.0718
24623203,0.0500674,0.0617853,0.00532632,3.6,30.15,89.1,-0.229922,0.592767,10.2538
24636377,0.0127832,0.056459,0.0127832,4.2,31.35,88.35,-0.479004,0.901725,10.2825
24659203,0.0308927,0.04048,0.00745685,4.95,29.85,88.95,-0.519719,0.726888,10.2753
24672378,0.0276969,0.0245011,0.0223706,4.05,30.9,87.45,-0.574805,0.748444,10.2035
24685377,0.00852211,0.0394148,0.00532632,6,29.55,87.3,-0.510139,0.650248,10.2059
24708209,0.015979,0.0330232,0.0138484,4.8,29.4,88.5,-0.376018,0.592767,10.2442
24721379,0.00852211,0.0245011,0.0106526,5.4,28.95,88.5,-0.397573,0.614323,10.1149
24744203,0.0106526,0.02024,0.0138484,4.2,29.85,88.65,-0.392783,0.827479,10.2155
24756384,0.00852211,0.0340885,0.0117179,4.95,29.55,88.95,-0.373623,0.784369,10.158
24779203,0.00106526,0.0266316,0.00426106,4.95,29.55,88.65,-0.311353,0.700543,10.2538
24791377,0.0191748,0.0308927,0.00532632,5.7,30.3,88.35,-0.486189,0.566422,10.225
24814236,0.00639159,0.0223706,0.0138484,4.95,29.85,88.65,-0.524509,0.793949,10.0933
24827379,-0.00426106,-0.0117179,0.00958738,4.5,29.55,87.9,-0.493374,0.499362,10.0742
24850203,-0.0181095,0.00745685,0.0127832,4.5,29.85,88.65,-0.340093,0.702938,10.2131
24862377,0.0170442,0.036219,0.00745685,5.1,31.2,88.5,-0.198787,0.587977,10.1316
24885214,0.0138484,0.0255663,0.00106526,5.85,31.95,89.1,-0.277822,0.662223,10.2634
24898382,0.0213053,0.00958738,0.0106526,4.8,30.15,87.75,-0.385598,0.690963,10.2322
24921203,-0.00426106,0.00106526,0.00532632,4.5,31.05,87.9,-0.392783,0.753234,10.2131
24933440,-0.0319579,-0.00639159,0.015979,5.4,30.45,87.45,-0.354463,0.611928,10.2442
24946677,-0.0394148,-0.00958738,0.00106526,4.35,29.4,88.8,-0.431104,0.590372,10.1724
24969203,-0.04048,0.00958738,0.00532632,4.95,31.05,88.35,-0.189207,0.724493,10.1269
24982377,-0.0138484,0.0458064,0.00319579,5.85,30.15,88.8,-0.440684,0.470621,10.1125
25005214,-0.0138484,0.0340885,-0.00213053,4.8,31.2,89.1,-0.423918,0.640668,10.2346
25017379,-0.0213053,0.00213053,0.00319579,5.4,29.4,88.05,-0.481399,0.88496,10.2227
25040203,-0.076699,-0.0138484,0.0106526,5.7,29.55,88.35,-0.500559,0.846639,10.2274
25053439,-0.0916127,-0.0575243,0.0170442,3.6,28.95,89.1,-0.881367,0.669408,10.1436
25076203,-0.0383495,-0.0585895,0.0191748,5.4,29.4,89.1,-0.759221,0.573607,9.99752
25088378,0.00213053,-0.0383495,0.00958738,3.3,28.2,89.85,0.0383203,0.559237,10.1867
25111203,-0.00852211,0.0117179,0.0117179,4.2,29.25,89.4,-0.313748,0.405956,10.17
25124379,0.0415453,0.0372843,0.0127832,4.05,29.4,89.1,-0.292192,0.513732,10.2538
25147203,0.0383495,0.0340885,0.0127832,4.5,28.8,89.4,-0.505349,0.640668,10.1532
25159378,0.0596548,-0.0117179,0.0213053,3.45,29.55,87.3,-0.775986,0.484991,10.2562
25182217,0.0639159,-0.0458064,0.0223706,4.2,28.8,90,-0.347278,0.547262,10.0646
25195378,0.0628506,-0.0553937,0.0426106,3.6,28.65,89.1,-0.486189,0.446671,10.2538
25208375,0.0862864,-0.0585895,0.0426106,5.4,32.4,90.15,-0.395178,0.439486,10.1724
25231203,0.0703075,-0.0596548,0.0575243,3.6,30.15,88.5,-0.57241,0.413141,10.2035
25244379,0.117179,-0.0671117,0.0553937,2.1,30.3,88.95,-0.167651,0.801134,10.2011
25267203,0.135289,-0.0234358,0.0426106,5.25,29.25,87.9,-0.196392,0.726888,10.1125
25279377,0.162985,-0.00106526,0.0500674,3.3,31.2,89.85,-0.177231,0.623903,10.2035
25302217,0.181095,-0.0170442,0.0479369,5.25,29.55,90,-0.0335303,0.643063,10.2011
25315379,0.245011,0.0287621,0.04048,4.5,31.05,88.35,-0.198787,0.671803,10.0263
25338203,0.294013,0.0532632,0.0426106,4.95,32.1,88.35,-0.239502,0.425116,10.0837
25350377,0.392017,0.129962,0.0490022,4.95,30.3,89.4,-0.110171,0.683778,10.0526
25373210,0.437824,0.173638,0.0553937,5.1,32.4,88.8,-0.213157,0.808319,10.0191
25386379,0.533697,0.216249,0.0532632,4.2,32.1,87.9,-0.241897,0.726888,9.91609
25409203,0.637028,0.231162,0.0617853,5.85,33.45,87,-0.263452,0.705333,9.82747
25421382,0.745685,0.258859,0.0671117,4.35,34.2,86.4,-0.447869,1.06459,10.0191
25444203,0.88843,0.318514,0.0820254,4.05,34.95,87.75,-0.507744,0.750839,9.85142
25456378,1.08231,0.251402,0.0490022,4.95,35.1,85.8,-0.593965,0.96639,9.59276
25479203,1.2911,0.379234,0.0415453,5.1,39.75,87,-0.416733,1.10051,9.88735
25491377,1.38165,0.378169,-0.00106526,4.8,39,85.65,-0.57241,1.67053,9.70772
25514203,1.56913,0.447411,-0.0117179,6.75,41.1,84.45,-0.931663,1.92679,10.0933
25527378,1.83012,0.454868,0.133158,7.05,44.4,84.15,-0.675396,1.26098,9.97118
25540382,2.01868,0.480434,0.209857,8.25,44.85,81.45,-1.42983,2.23815,11.7603
25563203,1.64051,0.537959,0.345146,7.35,48.45,81.3,-1.08734,3.76617,12.4955
25575377,1.67033,0.485761,0.355798,8.7,51.15,78.6,-1.16637,4.09908,10.7184
25598217,1.50415,0.328101,0.331297,7.05,52.2,77.4,-1.77231,3.89789,10.7831
25610379,1.49244,0.0958738,0.3036,7.95,53.4,78.6,-1.84417,3.85957,10.7591
25633203,1.32945,-0.0138484,0.316384,6.75,55.8,76.8,-1.85614,3.91466,10.8861
25645377,1.13664,-0.0500674,0.345146,7.95,57.9,74.85,-1.90404,3.42129,11.0489
25668209,0.971521,-0.124636,0.374973,7.2,57.9,73.8,-1.84656,1.80225,10.2897
25681382,0.699879,-0.284426,0.285491,6.75,59.85,73.2,-2.56986,-1.2514,12.0069
25704203,0.169377,-0.289752,0.232228,7.05,61.05,73.65,-0.991538,-0.755629,8.79043
25717382,-0.264186,-0.237554,0.238619,6.9,61.65,73.05,-2.80936,-1.88608,12.3255
25740203,-0.184291,-0.184291,0.241815,6.75,61.35,71.85,-1.79866,-1.91003,8.77127
25752378,-1.19949,-0.186421,0.238619,6.75,59.85,74.7,-1.74836,-1.91482,10.9938
25775217,-0.759533,-0.196009,0.215183,7.2,60.9,74.85,-1.65017,-1.7783,10.1867
25788378,-1.6224,-0.105461,0.136354,5.1,60.15,76.2,-1.66933,-1.30169,10.2706
25811203,-1.48604,-0.0447411,0.0127832,4.8,59.4,79.35,-1.77231,-1.16278,11.5255
25823378,-1.84291,0.0617853,-0.0820254,5.25,59.55,82.05,-1.41067,-0.793949,8.91258
25836382,-1.84184,0.102265,-0.193878,5.4,58.2,83.25,-1.48012,-0.252675,12.6895
25859203,-1.97287,0.15979,-0.290817,5.7,55.05,90.75,-1.14721,0.118553,11.504
25871377,-2.43839,0.129962,-0.307861,6.9,53.4,93,-0.368833,0.477806,12.2345
25894238,-2.1497,0.02024,-0.215183,8.55,49.5,97.35,0.0670606,0.592767,11.5231
25907379,-2.36063,-0.0500674,-0.110787,7.95,47.1,99.3,-0.318538,0.911305,11.6094
25930203,-2.24771,-0.0415453,-0.0490022,8.85,40.35,104.4,-0.716111,1.35917,13.2404
25942377,-2.38406,0.00426106,-0.0127832,9.6,37.35,107.85,-1.1041,1.70406,12.1722
25965214,-2.33506,0.0308927,0.0276969,10.2,34.35,109.95,-0.862207,1.78549,12.5458
25977382,-2.19444,0.0735032,0.110787,10.5,29.4,112.95,-0.936453,1.90284,11.2908
26000203,-2.073,0.072438,0.152333,9.9,21,115.5,-1.09931,1.7304,10.4789
26012423,-1.65649,0.0575243,0.174703,10.65,16.2,118.95,-1.09213,2.02259,10.4143
26035204,-1.54144,0.120375,0.207727,10.8,12.3,119.25,-1.08015,1.99146,11.0465
26047374,-1.51907,0.262055,0.213053,12,9.15,120.75,-0.893342,2.1136,12.5099
26070203,-1.54889,0.411192,0.181095,13.65,1.65,123,-0.593965,2.73152,13.2332
26083374,-1.71508,0.512392,0.036219,14.25,-2.55,122.1,-1.18553,2.50399,9.81071
26106203,-1.36886,0.390952,-0.15979,14.85,-8.1,122.1,-0.934058,2.10163,9.861
26118376,-1.17712,0.269512,-0.295078,15.9,-11.1,121.05,-0.59157,1.84536,7.46598
26141217,-0.62318,0.138484,-0.389887,18.6,-18.3,120.9,-0.0790356,1.65376,7.80608
26153378,-0.484695,0.0106526,-0.472977,19.65,-20.85,120.6,-0.416733,2.49681,10.8933
26176203,-0.732902,0.052198,-0.451672,18.3,-22.65,119.55,0.948428,4.17811,17.8412
26188378,-1.66181,0.245011,-0.360059,19.35,-22.35,120.3,0.706531,2.74349,8.67307
26211209,-0.941694,0.187487,-0.302535,19.35,-29.4,115.65,0.100591,1.53641,7.26001
26223379,-0.56459,0.115049,-0.287621,20.4,-31.2,114,-0.505349,2.0681,7.86116
26246203,-0.730771,0.1012,-0.295078,19.95,-33.3,115.2,-0.361648,1.91961,8.72337
26258384,-0.270577,0.0937433,-0.262055,19.95,-34.8,114.15,-0.689766,1.9699,8.25634
26281203,-0.4048,0.106526,-0.246076,19.35,-35.7,112.95,-1.14961,2.33395,8.15814
26293377,0.052198,0.147006,-0.203465,19.5,-38.85,112.35,-0.550855,1.98667,7.85637
26316203,0.385626,0.403735,-0.02024,21,-38.1,112.35,-0.256267,3.0309,5.66493
26328378,0.9875,0.231162,-0.134223,19.2,-37.35,113.1,-1.32445,1.18913,8.69223
26351203,1.03437,0.128897,-0.109722,21,-35.85,115.2,-1.37474,-1.41665,11.959
26363377,0.379234,-0.0266316,-0.111853,20.25,-35.1,116.55,-1.52802,-3.56499,13.6332
26387223,-0.0948085,0.165116,0.00639159,21.9,-34.2,116.4,-0.929268,-3.42368,10.6585
26400382,0.650877,0.0117179,-0.0276969,20.7,-34.2,116.7,-1.93997,-2.15672,6.5918
26413377,0.487891,0.0692422,-0.115049,19.95,-33.3,117.3,-2.44053,-2.44172,11.3507
26436217,0.72438,0.15979,-0.218379,20.55,-34.05,115.5,-2.17468,-2.89438,8.12701
26449378,0.739293,0.125701,-0.265251,20.25,-32.1,117.9,-1.01309,-2.27647,9.34128
26472203,1.17818,0.109722,-0.164051,22.05,-31.8,118.95,-0.570015,-1.9244,9.24309
26484377,0.607201,0.0479369,-0.113983,20.7,-28.2,120.3,-0.692161,-0.635878,14.8307
26507209,0.575243,-0.0117179,-0.0191748,21.3,-27.3,121.05,-0.799937,-1.23224,8.30424
26519382,0.611462,-0.125701,0.00426106,21.15,-27.45,121.65,-2.12438,-1.29451,11.8249
26542203,0.478304,-0.145941,-0.0543285,20.55,-25.5,121.8,-2.48843,-0.827479,11.801
26554382,0.22051,-0.178964,-0.120375,19.5,-24,122.1,-1.91602,-1.20829,9.47062
26577203,0.458064,-0.247141,-0.138484,20.25,-24.75,122.1,-0.917293,-1.57712,10.1915
26589378,0.500674,-0.206661,-0.106526,19.95,-24,123.15,-0.376018,-0.89933,10.3256
26612253,0.0703075,-0.152333,-0.0628506,18.3,-23.85,123,-0.320933,-1.23224,10.6753
26625379,0.519849,-0.147006,-0.00106526,18.15,-23.25,123.15,-0.414338,-1.51245,9.18321
26648203,0.288687,-0.0990696,0.0223706,19.2,-22.2,124.2,-1.05381,-1.18194,9.77957
26660377,0.482565,-0.14168,0.00745685,19.35,-21.15,123,-1.71244,-0.750839,11.4465
26683223,0.189617,-0.168312,-0.0127832,18.75,-21.45,123.6,-1.23583,-1.11728,9.11855
26696379,0.435693,-0.234358,-0.0330232,19.05,-20.85,125.85,-0.989143,-1.1053,10.2753
26709376,0.343015,-0.243946,-0.00639159,18.15,-20.25,124.65,-0.869392,-1.29211,8.80001
26732216,0.530502,-0.211988,0.0127832,17.85,-19.05,125.4,-0.60594,-0.508942,12.1411
26745378,0.229032,-0.169377,0.0383495,16.8,-18.3,127.5,-0.0886157,-0.489782,9.22632
26768203,0.36219,-0.187487,0.0511327,15.9,-17.7,125.25,-0.771196,-0.738864,11.3747
26780378,0.291882,-0.18216,0.0276969,15.6,-15.9,127.8,-1.17595,-0.748444,9.32452
26803223,0.308927,-0.183225,-0.0117179,15,-16.05,126.15,-0.66342,-0.439486,10.5172
26816379,0.393083,-0.2024,-0.00426106,14.55,-16.95,126.3,-0.373623,-0.571212,9.72209
26839203,0.292948,-0.223706,0.00532632,14.85,-14.7,126.3,-0.390388,-0.688568,9.98315
26851383,0.438889,-0.268447,-0.0191748,15.45,-14.85,126.45,-0.924478,-0.916095,9.21674
26874203,0.637028,-0.272708,-0.0234358,14.7,-14.25,126.45,-1.04423,-0.599952,10.4119
26886375,0.158724,-0.173638,-0.0234358,13.05,-13.2,128.4,0.119751,0.681383,13.7457
26909203,0.162985,-0.109722,0.0149137,14.55,-11.85,128.85,0.0550855,-0.058678,9.16884
26921381,0.0490022,-0.0969391,0.00426106,12,-13.2,128.85,-0.792751,-0.425116,10.9483
26944203,0.253533,-0.135289,0,11.4,-12.15,127.05,-0.476609,-0.408351,9.59516
26956375,0.152333,-0.123571,0.00106526,12.15,-12.3,129,-0.0934058,-0.281415,10.4645
26979217,0.162985,-0.210922,-0.00106526,10.65,-11.1,128.1,0.186812,-0.204774,9.50894
26992379,0.282295,-0.442085,0.00532632,11.55,-11.25,129.6,-0.778381,-0.482596,9.13052
27005376,0.596548,-0.532632,-0.0703075,10.05,-9.75,128.55,-1.10889,0.132924,9.54726
27028203,0.551807,-0.339819,-0.0852212,10.65,-11.1,129.45,2.01661,0.707728,14.857
27040382,-0.350472,-0.0894822,0,8.55,-6.9,128.85,0.201182,0.204774,8.00486
27063203,0.280165,-0.149137,-0.0458064,9.6,-9.15,129.9,-0.61073,-0.056283,12.2033
27075377,0.0447411,-0.0852212,-0.0106526,8.25,-8.25,129.6,0.287402,0.147294,8.6587
27098203,0.0958738,-0.0585895,-0.0276969,7.65,-8.7,129.6,0.234712,0.379611,11.868
27110377,-0.0170442,-0.0170442,-0.0138484,8.25,-8.25,129.6,0.0838257,0.432301,9.22872
27133203,0.117179,-0.0255663,-0.015979,7.2,-7.95,130.35,-0.500559,0.0850232,10.9412
27145378,0.158724,0.0287621,0.00532632,7.95,-8.25,130.65,-0.55804,-0.0299377,9.57839
27168209,0.0777643,0.0223706,0.0213053,7.8,-8.1,129.15,-0.775986,0.348475,10.9436
27180379,0.0532632,0.0330232,0.00745685,8.55,-6.6,129.15,-0.555645,0.209564,9.93764
27203203,0.0756338,0.0553937,0.0127832,8.1,-6.6,130.2,0.0287402,0.31255,10.3448
27215384,0.00958738,0.0330232,-0.0234358,8.55,-7.35,130.5,0.0143701,0.671803,10.0933
27238203,0.0500674,0.056459,-0.0117179,8.25,-5.7,130.05,-0.342488,0.154479,10.3687
27250377,-0.0372843,0.076699,0.0149137,9.15,-6.6,130.2,-0.498164,0.30297,9.7652
27273253,0.1012,0.0894822,0.00426106,7.95,-6.45,129.6,-0.385598,0.238304,10.3161
27286382,0.0649811,0.076699,-0.0127832,8.55,-7.35,130.2,-0.198787,0.101788,10.0718
27309203,0.0873517,0.108657,-0.00532632,8.1,-6.15,130.5,-0.191602,0.439486,10.3927
27321377,0.0138484,0.144876,-0.0106526,8.55,-6.9,128.85,-0.397573,0.106578,10.1963
27344217,0.0703075,0.174703,-0.0127832,8.85,-7.35,130.95,-0.926873,0.655038,9.95681
27357382,0.0351537,0.176834,-0.0191748,9.3,-6,130.65,-0.301772,-0.24549,9.88256
27380203,0.178964,0.0447411,-0.0213053,9.3,-5.7,130.65,-0.385598,0.698148,10.6106
27392416,0.0340885,0.076699,-0.0191748,9.9,-5.1,129.9,-0.344883,0.619113,10.043
27415204,0.102265,0.0990696,-0.0117179,9.6,-6.6,130.2,-0.627495,0.85622,10.6705
27428374,0.0500674,0.0820254,0.00852211,10.5,-4.95,129.3,-0.486189,0.403561,10.1197
27451203,0.0713727,0.092678,0.00426106,10.2,-5.55,130.2,-0.479004,0.564027,10.4813
27464379,0.0639159,0.0990696,-0.0319579,10.95,-5.1,131.55,-0.687371,0.731678,10.2011
27477375,0.0468716,0.0681769,-0.00213053,10.2,-4.05,130.5,-1.02267,0.410746,10.2945
27500203,0.0149137,0.00532632,-0.00958738,10.95,-4.35,130.5,-0.661025,0.32692,10.1987
27512415,0.0170442,0.0106526,0.00639159,11.4,-4.35,130.2,-0.349673,0.655038,10.3232
27535203,-0.0298274,0.0468716,0.02024,10.8,-3.45,129.6,-0.742456,0.719703,10.3735
27547374,0.0958738,0.0372843,0.00958738,10.2,-5.1,130.95,-0.0981958,-0.185614,10.0382
27570203,-0.0106526,0.0532632,-0.00319579,10.2,-4.8,131.25,-0.210762,0.916095,10.5053
27583375,0.0745685,0.116114,0.0245011,11.85,-4.2,132.15,-0.229922,0.990341,10.1867
27606203,0.0266316,0.0916127,0.0223706,10.95,-4.05,130.95,-0.275427,0.489782,10.2729
27618375,0.0298274,0.0937433,0.0106526,10.65,-5.55,131.25,0.119751,0.209564,10.2538
27641217,-0.0585895,0.0436758,0.00426106,10.5,-5.25,131.7,0.100591,0.358055,10.3041
27654379,0.0149137,-0.00852211,0.0138484,11.4,-4.35,131.55,0.0119751,0.935255,10.2706
27677203,-0.0181095,0,-0.0117179,11.85,-4.2,131.4,-0.261057,0.834664,10.3352
27689377,0.00532632,0.0213053,0,12.45,-1.35,131.55,-0.337698,0.722098,10.1149
27712209,-0.00213053,0.0245011,0,10.8,-4.5,130.65,-0.323328,0.499362,10.2825
27724382,-0.00532632,0.0458064,-0.00852211,10.8,-5.7,130.65,-0.0598755,0.29818,10.2035
27747203,-0.0127832,0.0276969,-0.00319579,11.85,-4.2,131.1,-0.270637,-0.0682581,10.0718
27759382,-0.0223706,0.0276969,0.00745685,11.4,-4.05,131.25,-0.294587,0.348475,10.2442
27782203,-0.0149137,0.0234358,0.00639159,11.1,-3.75,131.4,-0.352068,0.573607,10.2059
27794378,-0.0351537,0.0181095,0.00213053,12.15,-4.2,132.15,-0.481399,0.377216,10.1676
27817233,-0.0447411,-0.015979,-0.0127832,10.95,-4.8,130.95,-0.502954,0.3365,10.0981
27830378,-0.0191748,0.00426106,0.0138484,11.4,-4.35,131.25,-0.402363,1.31606,10.225
27843377,0.00639159,0.0266316,-0.0138484,10.5,-4.5,132.15,-0.457449,0.695753,10.1173
27866203,-0.0490022,-0.00745685,-0.0426106,11.55,-4.95,131.7,-0.419128,0.393981,10.3161
27878384,0.015979,0.00532632,0.0149137,11.4,-4.8,131.25,-0.376018,0.619113,10.2107
27901203,-0.0276969,0,0.00106526,11.55,-3.45,131.1,-0.593965,0.389191,10.2562
27913377,-0.0106526,0.00745685,0.00639159,10.05,-4.2,130.65,-0.364043,0.415536,10.1604
27936217,-0.02024,0.00639159,0.00639159,12,-4.8,131.25,-0.378413,0.444276,10.2107
27949379,-0.00958738,0.0415453,-0.00745685,11.85,-4.5,130.05,-0.502954,0.480201,10.1005
27972203,0.0500674,0.0234358,0.015979,10.8,-3.45,132.15,-0.627495,0.056283,10.1532
27984377,0.0106526,0.0319579,0.00213053,11.7,-4.05,130.95,-0.443079,0.314945,10.1867
28007209,0.0117179,0.0372843,0.0106526,10.5,-4.95,130.35,-0.479004,0.382006,10.146
28020382,0.0266316,0.0596548,0.0106526,11.4,-4.05,132,-0.550855,0.583187,10.2011
28043203,0.0287621,0.0841559,0.0181095,11.85,-3.45,131.7,-0.476609,0.674198,10.2394
28055382,0.0191748,0.117179,0.00852211,12,-5.55,130.2,-0.328118,0.305365,10.17
28078203,0.0319579,0.144876,0.0170442,12.15,-2.7,131.1,-0.617915,-0.0850232,10.1939
28091378,0.0415453,0.0958738,0.0117179,10.2,-5.1,133.05,-0.304167,0.195194,10.0502
28114234,0.056459,0.0276969,0.0213053,12.75,-4.05,131.25,-0.395178,0.463436,10.2658
28127378,0.0351537,0.0223706,0.00532632,10.95,-3.3,130.5,-0.64426,0.415536,10.0981
28140377,0.0479369,-0.015979,0.0127832,10.5,-3,130.05,-0.720901,0.564027,10.2179
28163203,0.129962,-0.0287621,0.00639159,12.6,-3.75,131.7,-0.752036,0.456251,10.1556
28175712,0.135289,-0.00852211,0.00745685,12,-4.35,131.25,-0.555645,0.34608,10.1508
28198203,0.18003,0.0330232,0.00852211,12.45,-3.3,131.25,-0.373623,0.405956,10.2322
28211377,0.191748,0.00745685,0.00426106,11.1,-1.2,131.7,-0.565225,0.525707,9.97836
28234214,0.256729,-0.0617853,0.00852211,12.6,-2.7,132.15,-0.60115,0.427511,10.1149
28246382,0.271642,-0.0703075,0.0138484,12,-1.8,132.3,-0.328118,0.583187,10.1005
28269203,0.392017,-0.0639159,0.0319579,12.15,-0.9,132.15,-0.368833,0.425116,10.1221
28281377,0.454868,-0.0500674,0.0223706,12.45,-0.3,131.25,-0.464634,0.3365,9.88974
28304217,0.617853,0.0223706,0.0585895,10.95,0.3,131.25,-0.416733,0.492177,9.89932
28317382,0.773382,0.104396,0.0681769,10.8,2.4,130.65,-0.311353,0.585582,9.83466
28340203,0.894822,0.169377,0.0916127,10.65,2.85,130.5,-0.0742456,0.705333,9.87537
28352410,1.03331,0.138484,0.0671117,12.45,3.3,131.55,-0.208367,0.94244,9.95441
28375204,1.10148,0.169377,0.0585895,12.15,7.95,133.2,-0.0766406,1.32085,10.0263
28388374,1.3433,0.142745,0.0596548,11.1,9,131.7,-0.380808,1.41665,9.92806
28401675,1.30069,0.249272,0.0937433,13.5,10.65,132.3,-0.713716,1.16518,10.1963
28424217,1.53078,0.238619,0.0980043,12.9,13.05,131.7,-0.0143701,1.85973,9.58558
28437382,1.58085,0.238619,0.0798948,15.6,17.7,132,-0.720901,2.0681,10.0646
28460203,1.68951,0.224771,0.137419,13.05,21,130.5,-0.419128,2.17109,9.81071
28472418,1.84184,0.165116,0.104396,13.35,22.65,130.65,-0.316143,3.25603,10.328
28495204,1.97926,0.169377,0.0639159,13.8,27.3,130.2,-1.15679,3.15304,10.4214
28508374,1.97713,0.16192,0.0884169,13.8,32.85,130.5,-1.09692,3.65121,10.7783
28531203,2.13799,0.0127832,0.108657,15.6,34.8,127.35,-1.61424,4.07513,10.7903
28544379,2.17101,-0.103331,0.2024,16.2,38.55,126.9,-1.56874,4.04399,10.4622
28567203,2.3585,-0.137419,0.272708,16.35,43.2,126,-1.17835,4.21883,10.4071
28579378,2.3798,-0.133158,0.34195,14.25,48.75,123.6,-1.09931,5.3876,11.092
28602217,2.20084,-0.0170442,0.405866,13.5,52.5,121.8,-0.694556,5.22713,10.1915
28615378,2.13479,0.144876,0.471912,12,56.25,121.5,-0.759221,5.47621,11.8824
28628375,1.81628,0.346211,0.580569,13.05,58.8,119.7,-0.00239502,5.51214,8.89581
28651203,1.99737,0.418649,0.672182,14.7,63.75,114.6,0.299377,4.89422,10.2394
28664379,1.53611,0.529436,0.76486,13.95,65.7,114,0.622705,4.35774,13.0248
28687203,0.846885,0.495348,0.941694,13.5,66.9,112.35,1.26697,1.53162,12.3279
28699377,0.178964,0.50387,1.38697,14.55,68.85,113.4,0.450264,2.50399,12.2081
28722217,-0.661529,0.249272,1.28577,12.75,67.65,111.3,-0.749641,0.0371228,13.2404
28735379,-0.579504,0.0458064,0.954477,13.95,66,112.5,-1.28373,-0.391586,4.65902
28758203,-0.874582,0.0479369,0.639159,13.8,63.6,112.05,-1.47294,-0.616718,9.25027
28770377,-0.748881,0.175769,0.335558,12.45,61.35,113.7,-2.39741,0.061073,9.59995
28793210,-1.93559,0.217314,-0.072438,12.9,57.15,116.1,-3.03928,0.844244,12.632
28806377,-2.03465,0.0777643,-0.392017,13.65,52.65,118.2,-1.73639,0.547262,10.5508
28829203,-2.58753,0.0617853,-0.478304,14.55,48.45,119.4,0.227527,0.587977,8.35693
28841380,-2.2786,0.125701,-0.356864,15.3,42.15,121.8,0.883762,0.844244,9.44667
28864203,-2.52574,0.201335,-0.247141,16.5,33.45,123.75,0.304167,1.59868,10.7256
28876376,-2.73773,0.184291,-0.290817,17.4,26.25,123.6,-1.12805,2.35071,12.153
28899217,-2.9625,0.0308927,-0.515588,16.35,20.25,123.6,1.18074,2.24533,10.5412
28911378,-2.96037,-0.00532632,-0.682835,18.75,13.95,124.95,0.452659,3.54583,11.389
28934203,-2.68021,-0.0735032,-0.664725,20.1,3.75,123.3,0.0598755,3.7015,9.64306
28946378,-2.4075,-0.0458064,-0.426106,20.1,-1.95,121.95,0.713716,3.91466,12.0524
28969209,-2.39578,0.104396,-0.106526,19.2,-6.15,119.7,-0.129331,4.4248,12.0788
28981379,-2.60883,0.252468,0.0617853,19.35,-11.55,118.2,-1.43462,5.85942,18.3202
29004203,-2.94759,0.254598,0.126766,21.45,-20.55,116.4,-1.11129,5.7229,11.3866
29016384,-2.81869,0.297209,0.168312,21.3,-26.25,112.65,-1.29092,5.87139,11.2429
29039203,-2.03679,0.336624,0.120375,22.95,-30.15,109.35,-1.99745,6.32644,9.72928
29051377,-2.0762,0.32384,-0.0617853,24.75,-33,108.3,-2.37586,6.03904,9.90411
29064377,-1.44663,0.26312,-0.232228,24.9,-39.9,102.6,-1.58071,4.97086,8.83115
29087209,-1.08444,0.334493,-0.317449,25.2,-43.65,100.8,-0.720901,4.50383,10.0311
29099382,-1.15475,0.409062,-0.388821,25.8,-43.5,99,-0.471819,4.95649,14.7037
29122203,-1.52652,0.16192,-0.487891,25.05,-43.8,98.55,-0.708926,3.28477,10.1604
29134411,-1.37419,-0.00213053,-0.460194,25.2,-48.75,93.15,0.476609,2.36508,10.4023
29157203,-1.20588,0.0873517,-0.358994,25.05,-49.05,91.65,-0.311353,2.15432,9.37481
29169378,-1.23784,0.128897,-0.366451,24.9,-50.25,89.7,-1.12805,1.85973,9.11136
29192219,-0.9875,0.150202,-0.412257,25.95,-51.45,88.95,-1.0562,1.59628,8.49824
29205378,-0.806405,0.215183,-0.44315,25.8,-54.15,85.35,-0.938848,1.52683,8.44555
29228203,-0.696683,0.313188,-0.441019,24.45,-54.75,85.2,-0.917293,1.27056,8.72576
29240378,-0.502805,0.439954,-0.447411,25.2,-55.8,82.35,-1.05381,1.2993,8.7569
29263223,-0.333428,0.415453,-0.533697,25.05,-54.9,83.55,-1.825,1.32804,8.42399
29275379,-0.188552,0.291882,-0.631702,25.2,-57,79.5,-1.6813,1.53641,8.45273
29298203,0.00106526,0.210922,-0.679639,25.65,-57,79.5,-1.18314,1.78549,9.57121
29310378,-0.0191748,0.276969,-0.596548,25.05,-56.7,79.05,-0.687371,1.87889,10.4861
29333209,-0.241815,0.392017,-0.470847,24.3,-57.15,79.35,-0.61552,1.80465,11.1735
29345379,-0.296144,0.379234,-0.340885,25.8,-57.9,79.35,-0.843047,1.01669,9.18321
29368203,-0.0490022,0.18003,-0.386691,24.75,-58.65,77.25,-2.96743,1.50527,6.62294
29380384,0.834102,-0.190682,-0.535828,24.45,-58.8,79.5,-1.25739,0.544867,7.68393
29403203,0.486826,0.0181095,-0.526241,24.9,-58.8,77.85,-0.136516,-1.23942,10.34
29415377,0.519849,0,-0.478304,23.1,-57.3,79.95,-0.687371,-3.62965,13.4775
29438217,-0.0969391,0.110787,-0.306796,23.4,-56.25,80.25,0.946033,-3.74461,11.2022
29451379,0.28336,0.107592,-0.142745,24,-58.95,80.7,0.627495,-2.49202,7.7486
29474203,0.546481,0.194943,0,22.8,-57,79.5,1.38672,-1.69927,9.37961
29486377,0.50174,0.252468,0.145941,23.1,-57,81,1.26936,-1.66095,10.8454
29509209,0.42504,0.224771,0.346211,24.9,-56.55,82.35,1.0107,-1.81662,10.2658
29522382,0.392017,0.135289,0.534763,24.9,-57,82.35,-0.227527,-1.65137,10.2035
29535675,0.450607,0.0607201,0.585895,24.3,-55.65,81.75,-2.26569,-1.7304,9.54965
29558217,0.452737,-0.0490022,0.495348,24.3,-56.4,84.3,-3.34584,-1.52922,9.47541
29571378,0.566721,-0.2024,0.314253,25.8,-54.9,82.2,-4.12901,-1.26577,9.20477
29594203,0.626375,-0.349407,0.134223,25.8,-54.15,83.25,-3.93023,-1.26337,9.00359
29606377,0.72438,-0.491087,-0.0191748,25.8,-54.15,82.5,-2.78301,-1.16039,9.32931
29629209,0.806405,-0.58483,-0.0468716,24.9,-51.75,85.5,-1.52323,-1.02387,9.37002
29641382,1.05887,-0.573112,-0.04048,25.05,-51.15,86.4,-0.55325,0.171244,13.1446
29664203,0.109722,-0.394148,-0.00213053,23.55,-51.6,87.75,0.0479004,0.195194,11.5136
29676382,0.580569,-0.338754,0.00532632,24.15,-51.45,87.9,-0.335303,-0.413141,10.8669
29699203,0.236489,-0.225836,0.0213053,22.8,-49.95,87.6,-0.280217,-0.576002,10.455
29711378,0.376038,-0.199204,0.0191748,22.05,-49.95,87.3,-0.752036,-0.415536,10.4023
29734238,0.269512,-0.169377,0.0458064,22.5,-50.1,87.75,-0.881367,-0.564027,10.3831
29747378,0.306796,-0.184291,0.0298274,22.5,-49.05,90.15,-1.02986,-0.655038,9.84663
29770203,0.318514,-0.224771,0.015979,22.35,-48.45,89.4,-1.23823,-0.389191,10.1053
29782378,0.378169,-0.295078,-0.00532632,22.35,-48.45,90,-1.09931,-0.28381,10.0718
29805214,0.295078,-0.311057,-0.00426106,22.05,-48.75,89.4,-0.850232,-0.192799,10.1149
29817379,0.387756,-0.32384,-0.02024,21.6,-48.45,90.75,-0.989143,0.0251477,10.4023
29840203,0.299339,-0.309992,-0.0298274,21.6,-48,91.35,-0.802332,-0.0754431,10.2753
29852412,0.356864,-0.313188,-0.0383495,19.2,-46.95,92.85,-0.469424,-0.168849,10.1915
29875203,0.3036,-0.269512,-0.0298274,20.25,-47.4,91.05,0.114961,0.286205,10.9747
29887374,0.203465,-0.18216,-0.0245011,19.5,-45.45,91.35,0.00718506,0.125739,10.9436
29910204,0.148072,-0.152333,-0.00106526,17.4,-46.95,92.85,0.0934058,0.214354,10.819
29923375,0.105461,-0.0884169,-0.00319579,18.6,-45.3,93.3,-0.138911,0.130529,10.613
29946203,0.0916127,-0.102265,-0.0127832,17.85,-44.85,93,-0.0862207,0.106578,10.4262
29958375,0.0692422,-0.0394148,0.00639159,17.4,-45.45,92.1,-0.131726,-0.00838257,10.17
29981217,0.0820254,-0.0713727,-0.00213053,15.9,-45.45,91.8,-0.227527,0.00359253,10.3185
29994379,0.120375,-0.056459,-0.0170442,18.3,-45.6,92.7,-0.0359253,0.0946033,10.1652
30007377,0.0511327,-0.0490022,0,18.75,-46.65,92.85,-0.105381,0.140109,10.2466
30030204,0.0628506,-0.056459,0.00639159,17.7,-44.7,91.8,-0.342488,0.221539,10.3256
30043376,0.036219,-0.0798948,0.00958738,17.55,-46.35,93,0.0239502,-0.0419128,10.3017
30066203,0.106526,-0.0756338,0.00745685,16.8,-44.55,93.3,-0.282612,-0.00838257,9.26704
30078377,0.120375,-0.0756338,-0.00745685,16.35,-44.7,93.45,-0.505349,0.743654,10.8238
30101217,0.0990696,-0.0713727,0.00319579,16.35,-45.45,92.85,-0.0502954,0.223934,10.3759
30114378,0.0383495,-0.0447411,-0.00106526,17.25,-45.6,93,-0.239502,0.348475,10.3568
30137203,0.0777643,-0.0308927,0.00532632,17.55,-44.55,94.8,-0.0431104,0.372426,10.3185
30149382,0.00639159,-0.0106526,0.0127832,17.55,-46.05,93.3,0.301772,0.0898132,10.3616
30172203,0.0862864,-0.00532632,-0.0138484,15.9,-43.65,94.5,-0.100591,0.29339,10.0837
30184378,0.0138484,0.0426106,0.00213053,15.9,-45.15,93.9,-0.833467,-0.367636,9.36045
30207203,0.227967,0,0.0266316,17.1,-43.65,93.15,-0.167651,0.226329,10.8813
30219382,-0.02024,0.0426106,0.0223706,17.1,-43.2,94.5,-0.117356,0.398771,9.71012
30242203,0.0820254,0.0980043,0.00745685,18.15,-43.65,93.45,0.0407153,0.343685,10.613
30254378,0.110787,0.11931,0.00426106,16.8,-43.8,94.8,0.522114,0.719703,10.3017
30277217,-0.0500674,0.076699,-0.04048,17.1,-43.95,92.4,-0.170046,0.516127,10.2562
30290378,0.0671117,0.0617853,-0.0149137,17.4,-44.4,94.5,-0.285007,0.707728,10.5723
30303673,-0.0500674,0.0884169,-0.0245011,16.2,-43.5,94.35,-0.268242,0.484991,9.4778
30326203,-0.0117179,0.123571,-0.0287621,18.3,-44.25,93.3,-1.1041,0.25507,10.8741
30338382,0.00213053,0.0436758,-0.02024,17.55,-43.5,94.8,-0.804727,0.173639,9.88974
30361203,-0.0990696,0.0458064,-0.0436758,17.55,-44.25,94.05,-0.373623,0.252675,10.6825
30373377,0.0191748,0.15979,0.0394148,18.15,-44.7,94.5,-0.318538,0.29339,9.77239
30396217,-0.0958738,0.0351537,-0.0458064,18.3,-42.3,93,0.0167651,0.27902,10.2801
30409379,-0.0532632,-0.00319579,-0.0479369,17.1,-44.7,94.2,0.0646655,0.231119,10.1724
30432203,-0.0820254,0.0617853,-0.00319579,18.45,-43.95,94.95,-0.337698,0.367636,10.4526
30444377,0.0287621,0.0181095,-0.0170442,18.45,-42.9,94.5,-0.467029,0.693358,10.1412
30467209,-0.0372843,0.122505,0.00213053,19.5,-44.4,94.2,-0.57241,0.638273,10.352
30479382,-0.0298274,0.0511327,-0.0415453,18.3,-44.55,94.35,-0.64426,0.290995,10.079
30502203,0.0330232,0.04048,-0.0223706,19.35,-43.8,94.35,-0.790356,0.635878,10.146
30515382,-0.00319579,0.152333,0.0106526,18.15,-44.7,93.45,-0.399968,-0.056283,9.90411
30538203,-0.0756338,0.0340885,0.00213053,17.4,-42.45,93.45,-0.66342,-0.120948,10.5148
30550378,-0.0149137,0.0287621,0.0351537,16.8,-44.25,94.05,-0.59157,0.300575,10.0406
30573203,-0.0596548,0.056459,0.0394148,18.75,-44.4,94.2,-0.210762,0.118553,10.2466
30585377,-0.0149137,0.0266316,-0.00319579,17.4,-42.45,94.2,-0.311353,-0.120948,10.146
30608203,0.00852211,0.0383495,0.0149137,17.7,-43.2,93.9,-0.177231,0.211959,10.1269
30620378,0.0639159,0.0223706,-0.0213053,17.55,-44.25,92.25,-0.479004,0.429906,10.1221
30643223,0.0181095,0.0713727,-0.00852211,18.75,-42.9,93.45,-0.570015,0.262255,9.89693
30656379,0.02024,0.0213053,0.00639159,18.75,-43.65,92.85,-0.423918,0.0922083,10.3807
30679203,0.0585895,0.0298274,0,18.75,-43.2,94.95,-0.431104,0.379611,10.1364
30691390,0.0213053,0.02024,0.00958738,20.25,-44.7,94.95,-0.258662,0.195194,10.261
30714203,0.04048,0.00532632,0,18.45,-43.95,94.95,-0.203577,0.271835,10.1604
30726375,-0.0191748,0.0298274,0.0170442,18.75,-44.4,94.2,-0.215552,0.199984,10.2706
30749203,0.0543285,0.0181095,0.00319579,19.2,-44.7,94.95,-0.146096,0.125739,10.1149
30761381,-0.02024,0.00745685,0.00639159,17.85,-44.85,95.1,-0.409548,0.33171,10.1245
30784203,0.0894822,0.00426106,0.0117179,17.4,-44.4,93.45,-0.390388,0.29818,10.3448
30796375,0.0479369,0.0681769,0.0447411,17.25,-42.3,95.1,-0.301772,0.645458,10.2346
30809675,0.0383495,-0.00958738,0,18.75,-42.9,94.5,-0.165256,0.310155,10.4095
30832210,0.02024,0.0255663,0.0213053,18.45,-42.45,93.45,-0.124541,0.149689,10.0263
30844379,0.0266316,0.0149137,0.0127832,18.45,-42.45,94.2,-0.316143,0.173639,10.3137
30867203,0.0447411,0.0170442,0.0234358,18.45,-43.95,94.5,-0.431104,0.290995,10.1771
30879382,0.0138484,-0.0106526,0.0138484,18.15,-43.2,94.5,0.0526904,0.29339,10.328
30902203,-0.00852211,0.00426106,0.00426106,19.5,-44.4,94.95,-0.258662,0.156874,10.1963
30914378,0.00213053,0.00426106,0.00639159,17.55,-43.05,95.4,-0.165256,0.401166,10.2418
30937217,-0.0117179,0.00213053,0.00106526,18.6,-44.55,94.8,-0.380808,0.223934,10.2514
30950378,-0.00213053,0.0266316,0.0117179,16.2,-43.05,94.35,-0.390388,0.173639,10.2203
30973203,0.0191748,0.00958738,0.00213053,17.7,-43.2,94.5,-0.584385,0.480201,10.1053
30985378,-0.0117179,-0.052198,-0.0287621,19.35,-43.8,95.4,-0.725691,-0.544867,9.9113
31008209,0.0447411,-0.0490022,0.00532632,18.75,-44.4,94.2,-0.684976,0.544867,10.4669
31021379,-0.036219,-0.00958738,-0.00532632,19.2,-44.4,94.5,-0.419128,0.276625,9.96159
31044203,0.0223706,-0.0266316,0.00958738,17.25,-42.3,94.8,-0.409548,0.0299377,10.2059
31056384,-0.00426106,-0.0234358,0.00745685,18.15,-43.95,93.9,-0.373623,0.281415,10.1173
31079203,-0.0138484,-0.0543285,0.0138484,17.1,-43.65,94.5,-0.390388,0.384401,10.3113
31091377,-0.0170442,-0.02024,0.0117179,18.75,-42.9,93.9,-0.421523,0.30297,10.1771
31114219,0.0553937,-0.0873517,0.0330232,18.3,-44.85,94.05,-0.0383203,0.0538879,10.1748
31127379,-0.0170442,-0.0213053,0.0383495,17.25,-43.5,94.8,-0.308958,0.295785,10.3352
31150203,0.0628506,-0.0245011,0.0255663,17.55,-44.25,94.35,-0.361648,0.441881,10.2466
31162377,0.0894822,-0.0351537,0.0319579,18.3,-44.55,94.35,0.0670606,0.439486,10.3975
31186213,0.105461,-0.0660464,0.0287621,17.85,-43.05,95.1,-0.234712,0.362845,10.1412
31199382,0.106526,-0.0745685,0.0415453,17.85,-42.75,94.05,-0.332908,0.226329,10.2777
31212377,0.177899,-0.0798948,0.0479369,17.4,-42.45,94.5,-0.165256,0.185614,10.146
31235217,0.188552,-0.0671117,0.0490022,17.25,-43.5,95.4,-0.316143,0.188009,10.1245
31248378,0.314253,-0.0468716,0.04048,17.85,-42,94.8,-0.203577,0.0371228,10.043
31271203,0.416518,0.0319579,0.0756338,17.7,-42.15,94.5,-0.0550855,-0.353265,9.66461
31283377,0.702009,0.112918,0.0607201,16.65,-41.4,95.55,0.570015,-0.0347278,9.92567
31306209,0.76699,0.24075,-0.0127832,17.25,-42.3,97.2,0.268242,0.31734,9.90651
31319382,0.885235,0.34195,-0.0106526,18.15,-39.6,96.6,0.0790356,0.755629,10.0191
31342203,1.06207,0.312122,-0.0170442,18.3,-37.95,97.95,-0.457449,0.834664,10.1532
31354407,1.09083,0.264186,-0.0223706,18.75,-38.85,96.3,-0.519719,1.0598,9.86579
31377203,1.25169,0.279099,0,18.75,-35.1,98.7,-0.783171,1.40707,10.0694
31389378,1.36886,0.299339,0.036219,18.75,-33.3,99.15,-0.483794,1.42144,10.0694
31412223,1.58405,0.328101,0.0713727,19.65,-31.65,99.6,-0.229922,1.61305,9.69575
31425378,1.85143,0.438889,0.0862864,21,-30.3,100.2,-0.811912,1.62742,10.0502
31438374,2.00589,0.552872,0.127832,20.4,-27.15,100.95,-0.411943,2.14474,10.5077
31461203,2.18912,0.594418,0.136354,21.3,-25.05,101.55,-0.661025,2.24533,11.2956
31473416,2.2296,0.696683,0.229032,23.4,-21.45,103.65,-1.51605,3.04287,11.3603
31496203,2.22427,0.491087,0.224771,24.3,-18.6,104.85,-1.6358,3.19855,11.0777
31509372,2.39791,0.349407,0.150202,23.85,-12.45,105.45,-1.16877,3.67276,11.5303
31532224,2.28819,0.170442,0.117179,23.25,-10.5,104.55,-1.4442,4.29786,10.637
31545379,2.3031,0.0191748,0.0969391,26.1,-5.7,103.5,-1.43701,4.40803,11.2717
31568203,2.14225,-0.0756338,0.0681769,26.1,-3.45,105.6,-0.900527,4.51581,10.8358
31580377,1.95263,-0.0660464,0.0894822,25.05,1.65,104.1,-0.874182,4.27391,10.6274
31603223,1.74597,-0.0905475,0.111853,25.8,3.45,104.55,0.129331,3.64402,12.7494
31616382,1.10148,-0.0319579,0.294013,25.35,4.95,104.1,1.22386,0.549657,10.0406
31639203,0.792557,0.056459,0.822384,24.3,6.45,103.05,3.21891,0.0179626,13.5685
31651386,0.164051,0.0585895,1.06207,24.9,7.65,102.6,0.435894,-1.05022,11.7195
31674204,-0.541154,-0.103331,1.03011,26.7,8.1,103.35,-1.78429,-1.57952,8.89581
31686372,-0.509196,-0.294013,0.800014,25.65,8.1,101.85,-2.67045,-2.03217,9.83226
31699377,-1.10361,-0.166181,0.563525,24.9,7.35,102.9,-2.72553,-1.24661,9.9592
31722217,-1.45302,-0.0415453,0.282295,25.65,2.55,100.8,-2.82612,-0.829874,11.7986
31735379,-1.82373,0.0820254,0.0394148,26.85,0.15,100.05,-2.38544,-0.453856,10.3807
31758203,-2.23386,0.171508,-0.0671117,25.05,-3,99.3,-1.0562,0.00359253,11.5734
31770378,-2.26156,0.241815,-0.0383495,25.95,-5.85,99.45,-0.196392,0.825084,10.9531
31793210,-2.59498,0.253533,0.00852211,27.15,-13.5,95.85,-0.823887,1.24661,11.7435
31805377,-2.5854,0.190682,-0.0415453,28.2,-16.05,93.75,-1.346,2.24054,12.4883
31828203,-2.80804,0.165116,-0.135289,27.6,-20.85,92.25,-1.40109,2.75787,11.516
31840380,-2.68873,0.108657,-0.246076,28.05,-23.7,87.6,-1.62382,3.24166,12.5698
31863203,-2.75477,0.0394148,-0.311057,29.55,-31.05,84.75,-1.59748,3.8955,12.8141
31876375,-2.91669,-0.00639159,-0.378169,28.95,-34.5,81.75,-2.08367,4.6188,13.4056
31899217,-2.938,0.0308927,-0.433563,29.1,-35.1,78.9,-1.61664,4.68346,11.8848
31911378,-2.85171,0.110787,-0.40267,29.25,-39.3,74.55,-1.06099,4.57329,11.3842
31934203,-2.6621,0.192813,-0.332363,28.8,-45.45,67.05,-1.0562,4.21404,10.9172
31946377,-2.52574,0.231162,-0.319579,27.9,-46.8,64.65,-1.58071,4.05836,11.2334
31969209,-2.31802,0.258859,-0.396278,28.8,-47.4,60.3,-1.89446,3.91226,9.50415
31981382,-1.85356,0.300405,-0.442085,28.5,-48.45,57.6,-1.76273,4.49904,11.8105
32004203,-2.11455,0.317449,-0.379234,27.3,-48.45,51.9,-1.35319,4.67388,12.2919
32016382,-1.877,0.358994,-0.258859,27.6,-49.35,48.3,-0.797542,4.46312,11.2908
32039203,-1.66927,0.442085,-0.125701,28.2,-49.05,47.25,-0.62031,4.16853,9.54965
32051378,-1.50309,0.468716,-0.0969391,27.6,-47.85,44.4,-0.922083,3.72066,10.2274
32074203,-1.18564,0.42504,-0.150202,29.1,-48.45,38.7,-1.0562,2.9351,9.00838
32086377,-1.18457,0.282295,-0.246076,28.2,-47.1,38.1,-0.972378,2.56866,11.0561
32109203,-1.19097,0.174703,-0.307861,28.05,-45.45,37.65,-0.534089,2.47765,10.4837
32121378,-1.31986,0.138484,-0.297209,28.2,-46.35,36.75,-0.308958,2.38903,9.80113
32144217,-0.977913,0.12144,-0.253533,28.65,-45.6,36,0.143701,1.78309,7.75339
32157379,-0.715858,0.209857,-0.11931,27.75,-45.45,34.5,0.433499,1.1053,7.83003
32180203,-0.385626,0.174703,-0.112918,26.4,-44.25,33.6,-0.294587,0.29818,8.58925
32192417,-0.401605,0.0372843,-0.155529,28.2,-44.25,33.3,-0.239502,-0.199984,9.1904
32205677,-0.449542,-0.00532632,-0.127832,27.6,-43.8,33.3,0.201182,-0.252675,10.5939
32228203,-0.476173,0.0511327,0.0106526,28.05,-42.9,32.7,0.59636,-0.3365,8.67307
32240377,-0.291882,0.0468716,0.199204,27,-41.7,30.6,0.474214,-0.552052,8.63954
32263223,-0.0788296,0.0394148,0.333428,28.05,-42.9,32.7,-0.495769,-0.482596,9.49696
32276382,-0.157659,-0.0351537,0.265251,26.85,-43.05,32.25,-1.73878,-0.774789,8.59883
32299203,0.072438,-0.144876,0.0596548,26.7,-42.45,32.4,-2.08606,-0.796344,9.10178
32311396,0.118244,-0.134223,-0.0937433,27.9,-40.8,31.5,-1.65017,-0.736469,8.54614
32334204,0.0894822,0.0276969,-0.0905475,29.7,-42,31.5,0.136516,-1.89805,9.51612
32346375,0.601874,0.358994,0.306796,28.05,-43.65,32.1,-6.48332,-4.25475,9.33171
32369203,0.476173,-0.0191748,0.191748,28.05,-41.7,32.7,-0.696951,-4.72418,12.0093
32382380,-0.0340885,0.167247,0.197074,28.5,-42.15,32.4,-1.14003,-3.3159,8.57488
32405203,0.633832,0.0287621,0.120375,27.75,-42.15,31.35,-0.764011,-2.81295,8.86228
32417375,0.265251,0.122505,0.0713727,28.5,-41.4,33.45,-1.60227,-2.71236,9.22393
32440217,0.586961,0.111853,-0.0351537,28.95,-40.05,31.95,-1.90404,-2.89678,9.6239
32452378,0.4048,0.188552,-0.115049,29.7,-42,33,-1.99266,-3.08119,8.22281
32475203,0.943824,0.12144,-0.201335,28.5,-41.4,33.45,-1.93039,-2.33634,10.2825
32487377,0.36432,0.111853,-0.153398,29.7,-40.8,33,-0.790356,-1.98667,10.6609
32510203,0.575243,0.0543285,-0.0649811,29.7,-40.05,33.9,-0.661025,-2.52076,10.0622
32522378,0.527306,-0.036219,0.00639159,27.15,-39.3,33.9,-0.821492,-2.64051,8.56769
32545203,0.672182,-0.0873517,0.0852212,29.1,-39.6,33.15,-1.2023,-2.5495,10.0143
32557382,0.700944,-0.1012,0.0905475,28.65,-39.3,33.9,-1.5855,-2.2142,8.52458
32580203,0.709466,-0.11931,0.0543285,28.5,-37.65,35.25,-1.81782,-2.34353,9.03472
32592378,1.04502,-0.201335,0.0287621,28.5,-37.35,35.25,-1.9711,-1.91721,8.53656
32615256,1.23997,-0.304666,0.0191748,28.8,-37.35,35.55,-1.26218,-0.451461,12.1866
32628379,0.110787,-0.109722,-0.0255663,27.9,-37.2,35.4,-0.986748,0.386796,16.7563
32651203,0.233293,-0.116114,0.0788296,28.95,-37.2,34.65,-0.426313,-1.42863,6.66605
32663377,0.46339,-0.150202,0.109722,29.25,-37.2,36,-1.58311,-1.4909,13.1039
32686209,0.28123,-0.100135,0.0617853,29.7,-36.45,36,-1.5855,-1.24182,8.75211
32698379,0.26099,-0.136354,0.0308927,28.2,-34.95,37.05,-1.46336,-1.43342,10.8717
32721203,0.448476,-0.186421,0.02024,28.8,-35.85,36.3,-1.40588,-1.39989,8.96287
32733419,0.312122,-0.232228,-0.00532632,28.95,-35.25,37.5,-1.24302,-1.54838,9.40835
32746379,0.60507,-0.312122,-0.0223706,27.9,-34.95,36.45,-1.07057,-1.23463,10.1029
32769203,0.474043,-0.316384,0.00319579,27,-35.1,36.9,-0.797542,-0.877775,10.0382
32781377,0.468716,-0.315318,0.00426106,29.25,-33.75,35.4,-0.948428,-0.767604,10.8406
32804217,0.284426,-0.253533,0.00426106,29.1,-34.8,36.3,-0.428709,-0.810714,11.3938
32817382,0.3036,-0.206661,0.0340885,29.1,-34.05,37.95,-0.287402,-0.88017,9.53289
32840203,0.299339,-0.189617,0.0628506,28.2,-34.5,37.5,-0.603545,-0.827479,10.8501
32852416,0.265251,-0.181095,0.052198,29.1,-34.05,36.9,-0.914898,-0.753234,9.54007
32875204,0.319579,-0.193878,0.0351537,28.05,-32.55,38.4,-0.756826,-0.944835,9.82747
32887374,0.426106,-0.210922,0.0436758,28.95,-33.75,37.8,-0.847837,-0.839454,9.64785
32910206,0.446346,-0.248207,0.0383495,28.2,-33.45,38.85,-0.706531,-0.631088,10.5244
32923375,0.418649,-0.231162,0.00958738,28.8,-33.6,37.65,-0.570015,-0.470621,9.84903
32946203,0.352602,-0.237554,0,28.05,-32.85,38.7,-0.869392,-0.223934,10.8022
32958375,0.361125,-0.236489,-0.00745685,27.9,-33,39.15,-0.754431,-0.216749,9.77478
32981217,0.465521,-0.268447,-0.0191748,27.3,-32.1,39,-0.828677,-0.286205,9.81789
32994379,0.44528,-0.276969,-0.00639159,28.2,-32.7,39.15,-0.878972,-0.29339,10.5388
33017203,0.390952,-0.26312,-0.0223706,28.8,-31.8,38.7,-0.589175,0.348475,10.5412
33029384,0.32171,-0.209857,-0.00426106,27.15,-31.2,39.6,-0.364043,0.358055,11.1687
33052204,0.287621,-0.145941,0.0127832,28.05,-32.1,40.05,0.198787,0.228724,10.7831
33065379,0.133158,-0.111853,-0.00639159,29.25,-33,38.85,-0.0886157,-0.168849,10.3759
33078377,0.241815,-0.0852212,0.00532632,27.75,-31.05,39,-0.258662,0.171244,10.6562
33101217,0.160855,-0.0181095,0.00106526,27.75,-31.05,40.05,-0.107776,-0.0802332,10.1245
33114379,0.151268,-0.00852211,-0.0117179,27.75,-32.1,39,-0.423918,0.101788,10.9747
33137203,0.0639159,0.00958738,0.00639159,28.2,-30.15,38.1,-0.526904,0.547262,10.3017
33149385,0.0490022,0.0245011,-0.00213053,28.65,-30.15,38.85,-0.316143,0.240699,10.4789
33172210,0.0905475,0.015979,-0.0117179,27.9,-30.9,39.15,0.177231,0.25507,10.3113
33185379,0.02024,0.0490022,-0.00319579,27,-32.1,40.05,-0.0766406,0.513732,10.6274
33208203,-0.0617853,0.056459,0.00532632,27.15,-30.15,38.85,-0.268242,0.281415,10.7256
33220382,-0.0468716,0.0713727,-0.00532632,28.2,-29.4,38.85,-0.498164,-0.281415,9.66222
33243203,0.135289,0.0745685,-0.0436758,28.8,-31.8,39.45,-0.819097,-0.118553,9.51852
33255377,0.0298274,0.0532632,-0.00852211,27.6,-30.9,38.55,-0.285007,0.27902,11.4489
33278217,0.00532632,0.0426106,-0.00532632,27.3,-29.25,39.45,-0.500559,0.504152,9.76041
33291378,-0.015979,0.0234358,-0.02024,27.15,-30.45,40.2,0.203577,-0.209564,10.4286
33314203,-0.0777643,0.0490022,0,27.3,-30.3,38.7,-0.61552,-0.0155676,10.0766
33326377,0.102265,0.0841559,0,28.05,-31.05,39.45,-0.888552,-0.425116,9.56642
33349209,-0.0149137,0.110787,0,29.25,-30.9,38.1,-0.775986,-0.24549,9.87537
33361382,0.250337,0.160855,-0.0191748,29.25,-29.7,39.15,-0.0455054,-0.0131726,10.0622
33384203,0.0255663,0.14168,-0.02024,27.9,-30.15,39.15,-0.699346,0.0730481,9.82508
33396382,0.211988,0.0990696,-0.00745685,29.7,-31.2,39.15,-1.50647,-0.329315,10.522
33409680,0.0873517,0.108657,0.0106526,28.8,-30.3,37.95,-0.510139,0.101788,10.225
33432203,0.0394148,0.0415453,-0.0245011,29.55,-29.85,39.75,-0.155676,0.410746,10.1388
33445378,0.0415453,0.0500674,0.00639159,29.7,-30.15,40.65,-0.536484,0.863405,10.7472
33468209,0.00426106,-0.0117179,-0.0245011,27.75,-29.85,39.75,-0.316143,0.473016,10.2298
33480379,0.00426106,-0.00426106,0.0149137,28.5,-31.8,38.7,-0.780776,0.286205,10.5029
33503203,0.0543285,-0.0117179,0.0181095,27.75,-29.25,38.7,-0.00958008,0.0706531,10.1556
33515384,0.0106526,-0.0649811,-0.00319579,27.75,-29.55,38.7,0.512534,0.0107776,10.5244
33538203,-0.102265,-0.0884169,0,28.05,-29.85,39.75,-0.0311353,0.125739,10.4214
33550377,-0.105461,-0.104396,-0.00426106,28.2,-28.65,38.55,-0.344883,0.28381,10.2298
33573241,-0.0553937,-0.0671117,0.00426106,28.05,-30.3,39,-0.0814307,0.314945,10.2107
33586379,-0.072438,-0.0617853,0.00213053,28.05,-31.35,40.05,-0.105381,0.25507,10.1412
33609203,-0.0671117,-0.0692422,-0.00639159,28.05,-29.55,39.45,-0.182021,0.195194,10.2466
33621377,-0.0479369,-0.00532632,-0.0106526,28.05,-29.55,39,-0.241897,0.693358,10.2801
33644217,-0.126766,-0.00852211,0.0170442,27.15,-30.45,39.6,-0.682581,0.101788,10.2514
33657382,-0.0458064,-0.0255663,0.00106526,28.8,-30.6,38.7,0.0718506,-0.0969983,10.1508
33680203,-0.175769,-0.00958738,0.00532632,28.8,-30.3,39,-0.349673,-0.585582,10.0358
33692377,0.00106526,-0.00958738,-0.0127832,27.75,-30.6,40.05,-0.383203,-0.0203577,10.1125
33715203,-0.0298274,-0.0245011,-0.0308927,28.2,-30.15,39.6,-0.222737,-0.199984,9.5736
33727378,0.0372843,-0.0298274,-0.00106526,29.1,-31.05,38.4,-0.855022,-0.0275427,10.649
33750207,-0.0149137,-0.036219,0.00639159,26.7,-29.85,39,-0.538879,0.180824,9.72449
33762377,-0.02024,-0.00958738,-0.00106526,28.05,-31.05,38.7,-0.852627,-0.195194,10.6322
33785203,0.0553937,-0.0127832,0.0181095,26.4,-30.15,38.1,-0.337698,0.0179626,9.85382
33797379,-0.111853,0.0340885,0.0245011,26.7,-30.3,39,-0.541274,0.370031,10.6202
33820217,0.0713727,-0.0351537,-0.00213053,26.25,-29.55,37.95,-0.220342,0.432301,10.1077
33832379,-0.0585895,0.0287621,0.00745685,27.3,-29.25,39,-0.325723,0.626298,10.3304
33855203,0.0553937,-0.00319579,0.0213053,27.6,-29.7,38.85,-0.483794,0.410746,10.2753
33867379,-0.02024,-0.0213053,-0.0127832,28.2,-29.7,38.85,-0.0215552,0.422721,9.99034
33890209,0.0372843,-0.0170442,0.0127832,28.5,-30.3,39,-0.0287402,0.432301,10.5843
33902382,-0.00852211,-0.00426106,0.0170442,27.15,-31.95,39.15,-0.186812,0.415536,10.2993
33925203,0.0255663,-0.0383495,0.00745685,28.05,-31.05,37.65,-0.277822,0.286205,10.1628
33937385,0.0213053,-0.0319579,0.0106526,28.05,-32.1,39.45,-0.119751,0.240699,10.1795
33950679,0.0138484,-0.0138484,0.015979,28.05,-29.85,38.7,-0.182021,0.192799,10.328
33973203,0.0340885,-0.0127832,0.0149137,28.2,-31.65,38.1,-0.287402,0.34608,10.0646
33985379,-0.0383495,0.0149137,0.0106526,27.6,-30.45,39.15,-0.404758,0.281415,10.1724
34008209,0.0340885,0.00745685,0.0149137,27.6,-29.7,39.9,-0.476609,0.252675,10.17
34020382,-0.0223706,0.0191748,0.0223706,27.75,-29.85,38.7,-0.366438,0.235909,10.0646
34043203,0.0458064,-0.0245011,0.0127832,28.8,-29.55,39.45,-0.0143701,0.0251477,10.0598
34055385,0.0266316,-0.00426106,0.0255663,27,-29.25,38.7,-0.203577,0.188009,10.1149
34078203,0.0713727,-0.02024,0.0308927,27.3,-30.6,38.4,-0.474214,0.161664,10.1748
34090379,0.0916127,-0.0276969,0.0298274,27.75,-31.35,39,-0.306563,0.26465,10.1173
34113232,0.0862864,0,0.0340885,27.15,-30.15,39.6,-0.292192,0.276625,10.3376
34126382,0.110787,0.0479369,0.0245011,28.5,-29.55,39.75,-0.392783,0.300575,10.0742
34149203,0.153398,0.0681769,0.0276969,26.85,-30.9,39.9,-0.416733,0.214354,10.3041
34161379,0.183225,0.072438,0.0330232,26.7,-28.8,39.45,-0.275427,0.231119,10.3256
34184202,0.189617,0.0681769,0.0511327,27.75,-30.3,38.7,-0.411943,0.0946033,10.0933
34196369,0.224771,0.0458064,0.0756338,27.9,-29.7,38.55,0.112566,-0.0179626,10.0358
34219204,0.315318,0.0713727,0.072438,28.05,-29.85,38.4,-0.399968,0.061073,9.97836
34231442,0.390952,0.124636,0.113983,28.2,-30.15,39.6,-0.433499,0.0898132,9.85861
34254208,0.660464,0.133158,0.128897,28.8,-30.3,39.75,-0.0263452,0.0467029,9.76041
34266345,0.794687,0.304666,0.15979,27.9,-29.4,39.9,0.304167,0.29339,10.4861
34289204,0.916127,0.357929,0.104396,27.75,-29.85,40.8,-0.213157,0.247885,9.86579
34301365,1.13451,0.407996,0.0596548,28.5,-27.75,40.5,0.0431104,0.528102,10.2825
34324205,1.25701,0.381365,0.0681769,27.9,-27.15,40.95,-0.519719,0.240699,9.96878
34336355,1.36673,0.398409,0.0937433,30,-26.7,40.2,-0.730481,0.494572,10.1269
34359265,1.53185,0.363255,0.0958738,28.5,-25.5,42.9,-1.19032,0.32692,10.534
34372376,1.65329,0.312122,0.137419,29.7,-23.4,44.1,-1.09692,1.00711,10.9028
34395206,1.70975,0.338754,0.196009,29.55,-23.7,43.2,-1.16877,1.83339,11.31
34407355,1.66394,0.26099,0.221575,30.45,-23.4,43.35,-1.67172,2.39861,12.6392
34430202,1.65009,0.186421,0.224771,31.05,-21.9,44.85,-1.98068,1.59628,11.7603
34442373,1.37632,-0.109722,-0.0149137,31.5,-19.35,45.45,-2.5962,0.393981,11.2836
34465204,1.31986,-0.132093,-0.125701,30.6,-17.7,46.05,-1.58311,-0.396376,10.5077
34477371,1.32732,-0.0884169,-0.155529,30.6,-16.95,45.3,-0.637075,-0.911305,10.9004
34500210,0.856473,-0.0777643,-0.0969391,31.05,-16.05,47.25,0.555645,-1.64658,10.5699
34512349,0.811731,-0.142745,0.0330232,31.35,-13.95,48.15,1.23583,-1.69687,12.359
34535265,-0.00426106,-0.0894822,0.189617,31.35,-14.4,48.75,1.08734,-1.4406,12.3279
34548372,-0.373908,-0.110787,0.298274,31.35,-11.4,48.75,0.646655,-2.02259,10.3496
34561360,-0.512392,-0.127832,0.351537,30.45,-10.5,49.65,0.0886157,-1.66574,10.3951
34584206,-0.762729,-0.14168,0.34408,30.75,-7.5,48.6,-0.134121,-1.44539,10.4598
34596372,-1.061,-0.152333,0.333428,31.05,-6.45,49.35,-0.359253,-1.09812,10.613
34619205,-1.10468,-0.105461,0.347276,33.75,-5.85,48.75,0.0167651,-1.02148,9.78676
34631354,-1.2911,-0.04048,0.401605,33.6,-3.45,49.35,-0.105381,-0.597557,11.1783
34654266,-1.50948,0.00213053,0.426106,36.3,0.3,52.65,-0.313748,-0.3365,11.1615
34667372,-1.65862,0.0276969,0.392017,36.45,4.2,55.65,-0.914898,-0.0898132,10.5124
34690206,-1.65968,0.0298274,0.304666,37.35,4.05,58.2,-1.40827,0.26944,10.9459
34702355,-1.75236,0.0543285,0.191748,38.55,4.5,61.95,-1.89686,0.750839,11.0058
34725202,-1.70336,0.0607201,0.0223706,40.5,1.35,70.05,-2.46448,1.45497,11.7579
34737374,-1.81628,0.137419,-0.0969391,43.05,-1.35,73.65,-1.85614,2.01541,10.8813
34760204,-1.61601,0.194943,-0.131028,44.1,-4.8,73.95,-1.77231,2.30042,11.298
34772613,-1.63198,0.204531,-0.142745,44.85,-8.4,75.75,-1.66214,2.50399,10.9292
34796218,-1.45835,0.24288,-0.124636,45.15,-14.7,72.15,-1.12566,2.53034,11.0178
34809375,-1.4413,0.309992,-0.125701,44.4,-18,71.55,-1.72441,2.96623,10.5915
34832249,-1.29856,0.339819,-0.136354,42.75,-22.5,67.65,-1.42983,2.98779,9.58318
34845382,-0.990696,0.306796,-0.135289,43.8,-24.3,64.5,-0.58678,3.0788,11.0729
34858373,-1.22718,0.363255,-0.072438,42.75,-24.3,57.6,-0.347278,3.10275,11.4345
34881203,-1.13451,0.339819,-0.0372843,42.45,-25.35,55.65,-0.438289,2.25491,9.96399
34893412,-1.12279,0.280165,-0.0788296,39.9,-24.75,52.95,-1.08973,2.39622,10.7328
34916203,-1.0397,0.176834,-0.208792,41.4,-24.9,51.15,-1.67651,2.38185,11.2669
34928376,-1.10468,0.100135,-0.275903,40.2,-23.7,46.65,-0.943638,2.28605,9.46104
34951203,-0.907605,0.123571,-0.247141,39.6,-22.65,45.15,-0.486189,1.67053,9.76041
34964379,-0.800014,0.24288,-0.178964,40.2,-22.5,44.25,-0.301772,1.52922,8.13659
34987203,-0.557133,0.312122,-0.156594,39.15,-21.75,43.2,-0.546064,1.48371,7.90427
34999378,-0.217314,0.288687,-0.2024,39.45,-20.25,41.55,-1.22146,1.60826,8.20605
35022223,0.0266316,0.125701,-0.282295,39.3,-18.6,41.25,-1.61424,2.90396,13.7385
35034378,-0.901214,0.0106526,-0.354733,39.9,-16.95,40.5,-1.16158,2.595,12.8284
35057203,-0.786165,-0.0575243,-0.299339,39.6,-16.8,42,0.0622705,1.2969,9.89932
35069381,-0.62318,0.00532632,-0.203465,38.7,-16.65,39,-0.122146,1.13644,8.78085
35092209,-0.552872,-0.00106526,-0.218379,39,-16.05,38.55,-1.1065,1.28972,10.1292
35104379,-0.520914,-0.0276969,-0.286556,38.1,-16.65,39,-1.12326,0.896935,8.99401
35127203,-0.410127,0.0319579,-0.305731,38.4,-17.4,37.65,-0.524509,0.829874,9.20716
35139384,-0.209857,0.0692422,-0.285491,37.8,-16.35,38.1,-0.433499,1.17236,9.83705
35162203,-0.376038,0.00639159,-0.272708,38.7,-16.65,38.4,-0.58678,1.04543,9.92567
35174377,-0.309992,-0.0852212,-0.241815,37.8,-16.8,38.85,-0.126936,0.492177,9.03472
35197220,-0.123571,0.0490022,-0.0511327,37.5,-15.3,37.5,3.01054,1.33522,6.90555
35210379,0.604005,-0.103331,0.00639159,38.1,-15.45,37.65,-2.84049,1.30169,7.9378
35233203,0.482565,-0.0511327,0.103331,37.8,-14.85,38.55,-2.87642,0.211959,8.9988
35245377,0.621049,-0.0692422,0.0777643,39,-15.6,38.1,-2.35909,-2.04894,13.0392
35268209,0.0937433,0.0149137,0.0937433,37.8,-14.85,37.8,-1.32684,-4.16135,9.80352
35280382,0.318514,-0.128897,0.118244,38.7,-14.7,37.65,-0.598755,-3.4141,9.77478
35303203,0.664725,-0.250337,0.171508,38.4,-15.45,38.4,0.0455054,-2.08486,6.99656
35315382,0.854342,-0.373908,0.230097,39,-14.25,35.4,-0.835862,-1.60826,10.7352
35338203,0.912932,-0.36432,0.246076,38.7,-12.9,37.65,-1.1999,-1.09812,11.389
35350378,0.409062,-0.219444,0.149137,38.25,-10.8,38.85,-1.43701,-0.391586,12.9961
35373241,0.476173,-0.140615,0.00639159,39.6,-12,37.5,-1.36277,-0.475411,10.7927
35386378,0.400539,-0.0649811,-0.0426106,38.25,-11.55,38.85,-0.598755,-0.808319,10.3424
35399376,0.429302,-0.0905475,0.0138484,38.7,-12.45,38.4,0.222737,-0.963995,10.9627
35422203,0.192813,-0.076699,0.0958738,39.3,-11.25,37.05,-0.141306,-0.911305,10.6969
35435410,0.272708,-0.0511327,0.12144,39.6,-12.3,39.15,-0.510139,-1.31846,9.18321
35458203,0.42291,-0.102265,0.120375,39.15,-10.65,39,-0.603545,-1.22266,9.50654
35470377,0.333428,-0.120375,0.171508,38.1,-11.1,37.65,-0.464634,-1.13644,9.64785
35493239,0.530502,-0.198139,0.160855,38.55,-10.5,39.15,-1.56874,-0.839454,9.71251
35506379,0.456998,-0.206661,0.100135,39.15,-11.4,38.7,-1.70765,-0.552052,10.3759
35529203,0.52411,-0.249272,0.0181095,38.4,-10.35,39,-1.15919,-0.31734,10.831
35541377,0.388821,-0.216249,-0.00852211,39.45,-10.35,39.75,-0.373623,-0.348475,10.6825
35564217,0.411192,-0.169377,0.0106526,39.6,-9.75,39.15,-0.0910107,-0.604742,10.1197
35577382,0.466586,-0.181095,0.0340885,37.2,-9.3,37.8,0.0143701,-0.571212,10.0478
35600203,0.527306,-0.273773,0.0255663,39.15,-10.65,39.75,-0.261057,0.314945,11.6405
35612420,0.149137,-0.207727,0.0394148,38.55,-9.75,38.55,-0.63947,-0.0203577,10.9172
35635204,0.32171,-0.216249,-0.0394148,38.55,-9,39.9,-0.443079,-0.159269,10.1245
35647374,0.207727,-0.18003,-0.0181095,38.7,-8.4,39.45,0.193997,-0.0802332,10.5627
35670205,0.291882,-0.145941,-0.00852211,39.15,-8.85,40.5,0.110171,-0.118553,10.4166
35682374,0.151268,-0.104396,-0.015979,38.55,-8.25,39.9,-0.234712,-0.0227527,10.4837
35705203,0.230097,-0.108657,-0.0170442,38.4,-6.9,39.75,-0.112566,0.0251477,10.4214
35717375,0.160855,-0.0639159,0.00213053,38.7,-7.65,40.5,-0.0694556,-0.128134,10.2059
35730378,0.232228,-0.0543285,-0.00106526,39.15,-8.4,40.05,0.0910107,0.444276,10.9555
35753209,0.02024,-0.02024,0.00213053,38.55,-9,40.95,-0.0143701,0.0179626,10.1532
35766376,0.18003,-0.0511327,-0.00852211,38.4,-8.85,38.4,-0.299377,-0.128134,10.1364
35789203,0.0873517,-0.0319579,-0.00426106,38.4,-6.9,40.8,-0.354463,-0.0395178,9.92088
35801380,0.137419,-0.0372843,0.015979,37.8,-7.95,39.9,-0.498164,-0.0946033,10.3256
35824203,0.0990696,0,0.0127832,37.65,-9.15,39.45,-0.311353,0.142504,10.0215
35836376,0.132093,0.00319579,0.0330232,38.7,-6.6,38.4,-0.225132,0.180824,10.4358
35859217,0.104396,0.00958738,0.0191748,38.55,-8.7,39.6,-0.256267,0.235909,10.2346
35872378,0.0990696,0.0191748,0.0298274,38.4,-6.6,40.8,0.0550855,-0.00598755,9.94962
35895203,0.205596,0.0575243,0.0234358,39.3,-8.25,39.6,0.445474,0.0802332,10.4143
35907378,0.0671117,0.0809601,0.0298274,39,-7.5,39.15,0.0502954,0.0682581,11.0777
35930209,0.0660464,0.0436758,0.0255663,38.55,-6.75,39.6,-0.323328,0.0874182,9.70772
35943379,0.0458064,-0.00213053,-0.00532632,38.7,-7.35,40.8,-0.541274,-0.058678,10.2849
35966203,0.0788296,0.0149137,0.0255663,39.9,-7.35,41.55,-0.280217,-0.0922083,9.5281
35978378,0.0511327,-0.0106526,0.00852211,37.5,-5.7,39.9,-0.756826,0.168849,10.5172
36001203,0.126766,0.0138484,0.0223706,38.25,-6.45,40.2,-0.725691,0.772394,9.7652
36013377,0.0788296,-0.0308927,0.00745685,38.55,-7.2,39.15,-0.241897,0.247885,10.7855
36036235,0.0735032,0.00319579,-0.00213053,38.7,-7.35,40.8,-0.00479004,0.405956,10.1292
36049379,0.00852211,0.0383495,0.0117179,39,-7.5,39.15,-0.172441,0.0946033,10.431
36062376,-0.00106526,0.0266316,0.00106526,38.55,-8.7,39.6,0.0550855,0.458646,10.2921
36085203,-0.0234358,0.0511327,0.00745685,38.1,-6.9,39.75,-0.289797,0.417931,10.5603
36097382,-0.00213053,0.0553937,0.00106526,37.2,-6,40.95,0.0263452,0.231119,9.94243
36120203,-0.0490022,0.072438,0.00213053,38.7,-6.6,40.05,-0.495769,0.156874,10.2825
36133378,-0.0191748,0.0628506,0.00426106,39.45,-8.1,40.5,-0.344883,0.190404,9.88495
36156217,0.0862864,0.0798948,0.00213053,39.45,-7.65,39.45,-0.335303,0.451461,9.88256
36168378,0.0905475,0.0756338,-0.036219,38.7,-7.35,39.75,-0.986748,0.32692,9.8131
36191203,0.174703,0.02024,-0.0447411,39.9,-6.9,39.45,0.380808,0.0299377,10.5412
36203378,-0.04048,0.0415453,-0.00532632,39.6,-7.2,39.9,0.265847,0.140109,10.5268
36226209,0.0223706,0.0756338,-0.0191748,39.45,-6.15,38.7,-0.598755,0.461041,9.93046
36238379,0.092678,0.0703075,-0.02024,39.45,-6.9,40.05,-0.0263452,0.587977,10.0718
36261203,-0.02024,0.0319579,-0.0340885,38.4,-6.15,41.55,-0.349673,0.599952,10.1412
36273425,0.134223,0.0255663,0.00426106,38.25,-6.75,38.85,-0.0143701,-0.104183,10.7112
36296203,0.0117179,-0.0394148,0.0213053,37.8,-6.45,39.15,0.186812,0.130529,9.98075
36309377,0.0628506,-0.0628506,0.0117179,39.6,-7.5,39.15,-0.505349,0.391586,10.6562
36332229,0.00852211,-0.0585895,0.0149137,38.1,-6.6,38.4,-0.00479004,0.063468,10.2107
36345379,-0.0138484,0.0127832,0.00958738,39.15,-7.35,39.45,0.0335303,1.38552,10.3424
36358669,-0.02024,0.0585895,-0.0213053,39.3,-6,38.55,-0.469424,0.734074,10.1101
36381203,0.106526,0.0735032,0.0255663,39,-6.75,40.2,-0.6251,0.688568,10.5029
36393411,-0.0223706,0.154463,0.0117179,40.35,-7.95,39.6,0.392783,0.94244,10.0574
36416203,0.072438,0.072438,-0.00213053,38.1,-7.35,38.7,0.0143701,1.64179,10.3975
36429376,0.0319579,0.0841559,-0.0255663,38.7,-4.35,39,-0.694556,0.451461,10.0646
36452229,0.0276969,0.113983,0.0330232,38.55,-7.2,38.85,-0.955613,0.267045,10.6777
36465378,0.0916127,0.0905475,0.0735032,39.3,-6.45,41.25,-0.359253,0.159269,9.94722
36488203,-0.0255663,0.02024,0.0181095,38.7,-5.85,39,0.265847,-0.123344,10.3999
36500378,0.0447411,0.0276969,0.00426106,39.15,-7.35,39.45,0.0934058,0.803529,10.2394
36523217,0.0170442,0.0575243,0.00852211,40.35,-7.95,38.85,-0.0934058,0.846639,10.3855
36536379,0.0575243,0.0426106,0.00745685,39.6,-6.45,39.15,-0.177231,0.643063,10.2777
36559203,0.0117179,0.036219,0.0138484,38.55,-6,38.55,-0.0910107,0.640668,10.2346
36571386,0.0340885,0.0245011,0.00532632,39.6,-6,39.15,-0.229922,0.434696,10.2586
36594203,0.00745685,0.02024,0.00958738,40.35,-7.5,38.85,-0.387993,0.547262,10.2035
36606372,0.0181095,0.0138484,0.00852211,40.95,-6.9,39,-0.447869,0.578397,10.2586
36629203,-0.00532632,0.0234358,0.00319579,39.6,-6,39.6,-0.445474,0.420326,10.0813
36642379,0.0276969,0.0245011,0.00106526,39,-7.2,39.15,-0.404758,0.422721,10.1891
36655379,0.00532632,0.0287621,0.00532632,38.55,-7.2,39.6,-0.426313,0.494572,10.2466
36678203,0.02024,0.0319579,0.00532632,39.45,-7.35,38.7,-0.306563,0.587977,10.2131
36690378,0.0138484,0.0479369,0.00958738,40.65,-6.45,39.9,-0.359253,0.470621,10.1245
36713210,0.0287621,0.0553937,0.00532632,39.6,-7.2,39.6,-0.354463,0.439486,10.1484
36726375,0.0287621,0.0287621,0.0106526,39.3,-6,38.85,-0.457449,0.499362,10.2634
36749203,0.0223706,0.0447411,0.0117179,38.25,-4.95,39.6,-0.428709,0.398771,10.1939
36762380,0.0191748,0.0213053,0.00958738,38.4,-6.9,40.5,-0.368833,0.470621,10.1795
36785203,0.0287621,0.00106526,0.0138484,38.4,-5.1,37.95,-0.0958008,0.528102,10.1316
36797375,-0.0820254,0.056459,0,38.25,-7.5,39.6,-0.490979,0.499362,10.1843
36820217,0.0447411,-0.0181095,0.00958738,40.5,-5.55,39.75,-0.529299,0.781974,10.3687
36833378,-0.0266316,0.0181095,0.00532632,39,-7.2,38.85,-0.433499,0.662223,10.1101
36856203,0.00532632,-0.0213053,-0.00106526,38.55,-6.45,38.85,-0.210762,0.290995,10.237
36868377,-0.00639159,0.015979,0.0117179,39.15,-5.85,39.45,-0.433499,0.429906,10.1724
36891209,0,-0.02024,0.00852211,39.3,-7.2,39.15,-0.555645,0.492177,10.3089
36904382,-0.0213053,-0.036219,0.0127832,40.95,-6.6,39,-0.435894,0.724493,10.1939
36917377,-0.0351537,-0.0415453,0.0127832,39.45,-6.15,40.05,-0.474214,0.657433,10.3113
36940217,-0.0436758,-0.0692422,0.0106526,39.15,-7.65,40.05,-0.280217,0.489782,10.2801
36953378,-0.0617853,-0.0543285,0.0138484,39.15,-6.6,39,-0.213157,0.518522,10.1939
36976203,-0.0596548,-0.0596548,0.0170442,39.6,-7.2,39.15,-0.390388,0.580792,10.2777
36988377,-0.0639159,-0.0681769,0.00426106,39.15,-5.85,37.35,-0.397573,0.537682,10.237
37011209,-0.0585895,-0.0735032,0.00213053,38.4,-6.6,39,-0.684976,0.516127,10.1891
37023382,-0.0585895,-0.0394148,0.0127832,40.05,-6.75,38.85,-0.778381,0.671803,10.3328
37046203,-0.00745685,-0.0788296,0.00106526,39.3,-5.7,39.15,-0.371228,0.188009,10.0766
37058382,-0.0671117,-0.0149137,0.0223706,40.05,-6,39.15,-0.160466,0.32692,10.3185
37081203,0.00106526,-0.0255663,-0.00213053,39,-6.45,38.55,-0.249082,0.578397,10.2562
37093378,-0.04048,-0.0191748,0.00213053,39.15,-6.6,40.05,-0.234712,0.492177,10.1604
37116217,-0.00745685,-0.0117179,0.00745685,40.5,-6.9,39.45,-0.332908,0.496967,10.2298
37129378,-0.0351537,0.0127832,0.0170442,39.9,-8.4,40.05,-0.289797,0.549657,10.1819
37152203,0.00639159,-0.015979,0.0149137,40.2,-6.6,39.75,-0.59636,0.401166,10.1771
37164378,0.0255663,-0.00958738,-0.0138484,39.3,-6,39.9,-0.498164,0.238304,10.0334
37187209,0.056459,-0.0127832,-0.0127832,39,-5.25,38.85,-0.184417,0.216749,10.0718
37200379,0.0894822,0.0127832,0.00319579,39.45,-5.55,39,-0.0574805,0.178429,10.146
37223203,0.206661,0.04048,0.00319579,39,-7.2,40.2,-0.435894,0.238304,9.99273
37235405,0.231162,0.076699,0.0149137,38.7,-6.6,39,-0.325723,0.353265,10.0909
37248379,0.345146,0.0617853,0.00852211,39.3,-5.25,38.85,-0.325723,0.0371228,9.84184
37271203,0.428236,0.0585895,0.0127832,39.15,-5.55,40.05,-0.225132,0.192799,10.0311
37283377,0.599744,0.138484,0.0319579,39.9,-5.85,40.5,0.0766406,-0.319735,9.50415
37306209,0.810666,0.205596,0.0298274,38.7,-5.55,40.5,-0.0239502,-0.0131726,9.68377
37318382,1.0365,0.316384,0.0234358,38.55,-4.2,40.2,0.138911,0.183219,9.56163
37341203,1.30708,0.395213,0.04048,39.6,-4.5,39.15,-0.423918,0.271835,9.88256
37353422,1.56381,0.392017,0.0447411,39.15,-4.8,40.5,-0.0359253,1.01429,9.72688
37376203,1.94411,0.413323,0.0617853,39.6,-1.95,38.1,-0.280217,0.638273,10.0861
37388378,2.14544,0.547546,0.160855,39.45,-2.85,39.75,-0.237107,1.31367,10.2059
37411203,2.46822,0.676443,0.262055,40.95,-1.35,38.7,-0.780776,2.41538,11.025
37424379,2.49165,0.716923,0.285491,40.35,-0.15,38.85,-1.86093,3.18418,12.6081
37447203,2.35317,0.411192,0.235423,40.35,1.95,37.5,-1.93278,3.48116,12.4476
37459378,2.11562,0.115049,0.185356,40.5,2.85,38.7,-2.18665,3.52906,11.9399
37482217,2.10709,-0.0415453,0.150202,41.55,3.6,38.4,-0.986748,3.93861,11.5375
37495378,1.88871,-0.04048,0.148072,40.35,4.95,37.5,-0.986748,3.98412,9.96638
37518203,1.89084,0.0532632,0.196009,40.05,6.45,37.8,-0.857417,2.72673,10.6657
37531390,1.53611,0.105461,0.209857,40.2,7.65,38.7,-0.500559,2.31,11.9471
37554203,0.797883,0.140615,0.371777,41.25,8.4,38.7,-0.155676,0.0227527,10.6729
37567372,0.851146,0.135289,0.456998,41.55,9.9,37.35,-1.05141,0.525707,11.5687
37590209,-0.308927,0.111853,0.42504,42.45,12.3,36.45,-1.31966,-0.599952,9.42511
37602375,0.0575243,0.00319579,0.351537,40.5,12.45,36.9,-1.152,-0.9137,9.94483
37615379,-0.607201,-0.015979,0.297209,40.65,14.25,36,-0.749641,-1.03106,7.97852
37638203,-0.650877,-0.0490022,0.227967,40.2,15.45,35.55,-1.36277,-1.08135,11.3818
37650378,-1.28577,-0.0841559,0.102265,40.65,15.3,36,-1.50647,-0.470621,10.4789
37673210,-1.72466,-0.0798948,0.0117179,41.55,16.95,36.3,-1.41067,-0.511337,10.4957
37685375,-1.7694,-0.052198,-0.0649811,40.65,17.85,36.75,-1.7292,-0.0850232,9.4299
