timestamp,gyro_x,gyro_y,gyro_z,mag_x,mag_y,mag_z,accel_x,accel_y,accel_z
9925226,-0.00958738,0.00745685,0.00958738,21.15,-15.6,72,-0.890947,0.753234,11.2004
9938377,-0.00639159,0.00532632,0.00852211,21.9,-14.55,70.35,-0.898132,0.705333,11.1381
9951374,-0.0117179,0.00745685,0.00745685,21.6,-14.4,70.8,-0.845442,0.793949,11.2411
9974249,-0.00213053,0.0106526,0.00958738,21.45,-16.05,70.65,-0.838257,0.750839,11.2196
9987373,-0.00958738,0.0138484,0.00958738,21.9,-14.55,70.65,-0.835862,0.779579,11.186
10010203,-0.0127832,0.0117179,0.00319579,22.35,-14.4,69.45,-0.881367,0.801134,11.1932
10023374,-0.00319579,0.0149137,0.00319579,22.95,-15.6,69.9,-0.907712,0.726888,11.2172
10046213,0.00213053,0.0106526,0.00958738,21,-14.7,70.05,-0.845442,0.758024,11.1549
10059377,-0.00426106,0.0106526,0.00426106,21.3,-14.7,70.05,-0.890947,0.810714,11.198
10082203,-0.00213053,0.0117179,0.00745685,22.2,-16.8,70.35,-0.785566,0.781974,11.1573
10094415,-0.0127832,0.0170442,0.00532632,21.45,-15.6,70.65,-0.850232,0.746049,11.1764
10117203,-0.00745685,0.0117179,0.00532632,21.9,-14.85,70.35,-0.843047,0.729283,11.198
10130379,0.00639159,0.00958738,0.00852211,22.2,-15.3,71.4,-0.900527,0.774789,11.1357
10143373,0.00106526,0.00852211,0.0106526,21.3,-15.9,69.45,-0.819097,0.846639,11.2651
10166213,0,0.0138484,0.00532632,20.4,-15.6,71.7,-0.859812,0.758024,11.2172
10179373,0.00319579,0.00958738,0.00745685,21,-15.45,70.05,-0.866997,0.760419,11.21
10202203,-0.00106526,0.00958738,0.00426106,21.9,-13.8,69.9,-0.835862,0.772394,11.1788
10214421,-0.00213053,0.0117179,0.00745685,21.3,-15.9,70.5,-0.893342,0.777184,11.2531
10237203,0.00639159,0.0106526,0.00319579,21,-16.2,70.8,-0.878972,0.798739,11.2219
10250378,-0.00532632,0.00852211,0.00639159,21,-15.9,70.8,-0.862207,0.784369,11.1501
10273227,-0.00106526,0.0127832,0.0106526,22.35,-14.4,70.05,-0.843047,0.793949,11.2818
10286378,-0.00213053,0.0117179,0.0117179,21.9,-14.55,70.35,-0.866997,0.863405,11.1932
10299666,-0.0106526,0.00852211,0.00532632,20.55,-16.2,69.45,-0.900527,0.765209,11.2579
10322203,-0.00213053,0.0117179,0.0117179,22.8,-15.9,70.8,-0.871787,0.820294,11.2579
10335418,-0.0117179,0.00319579,0.00426106,21.3,-13.95,70.05,-0.835862,0.781974,11.1621
10358203,-0.00532632,0.0170442,0.00532632,21.3,-15.15,70.5,-0.828677,0.779579,11.2243
10371373,-0.0117179,0.00745685,0.00532632,21.3,-15.9,70.8,-0.871787,0.851429,11.1645
10394241,-0.00852211,0.0138484,0.00639159,21.6,-14.7,70.8,-0.855022,0.808319,11.2411
10407378,-0.0106526,0.00639159,0.0106526,21.6,-15.45,70.8,-0.943638,0.798739,11.1477
10430203,-0.00426106,0.00852211,0.00852211,21.9,-15.6,70.95,-0.828677,0.815504,11.2219
10443376,-0.00532632,0.00958738,0.00532632,22.05,-15.15,70.05,-0.843047,0.829874,11.2315
10456700,-0.00745685,0.0117179,0.00958738,21.6,-14.7,71.1,-0.778381,0.820294,11.2196
10479203,-0.0149137,0.00852211,0.00319579,22.05,-16.2,70.5,-0.871787,0.760419,11.1884
10492377,-0.00106526,0.0181095,0.00852211,22.8,-15.15,71.55,-0.874182,0.817899,11.2148
10515241,-0.00852211,0.00852211,0.00745685,21.3,-14.7,72.15,-0.864602,0.827479,11.1669
10528377,-0.0117179,0.0106526,0.00639159,22.2,-14.55,69.9,-0.871787,0.781974,11.2746
10551203,0.00106526,0.0106526,0.00958738,21.9,-13.8,71.4,-0.910107,0.758024,11.2124
10563377,-0.0117179,0.0106526,0.00958738,22.5,-15.6,70.95,-0.802332,0.829874,11.1573
10586213,-0.00958738,0.0117179,0.00532632,21,-15.45,70.05,-0.866997,0.789159,11.2411
10599378,-0.0117179,0.00958738,0.00745685,22.5,-14.85,71.7,-0.926873,0.810714,11.2004
10622203,-0.0117179,0.00852211,0,21.6,-15.15,70.05,-0.855022,0.755629,11.2148
10634420,-0.0106526,0.00852211,0.00532632,22.05,-15.45,70.5,-0.814307,0.837059,11.2603
10657203,0.00213053,0.0117179,0.00958738,21.3,-16.2,71.1,-0.871787,0.760419,11.1884
10670376,-0.0191748,0.00958738,0.00213053,22.2,-15.6,70.65,-0.874182,0.746049,11.2052
10683376,-0.00639159,0.0138484,0.0117179,21.9,-16.05,70.95,-0.893342,0.748444,11.1501
10706205,-0.0149137,0.00852211,0.00319579,21.45,-17.55,71.4,-0.893342,0.786764,11.1836
10719379,-0.0191748,0.00958738,0.00745685,21.6,-14.7,70.5,-0.871787,0.750839,11.2196
10742203,-0.00426106,0.0138484,0.00639159,22.05,-15.15,70.5,-0.850232,0.781974,11.1621
10755399,-0.0127832,0.0127832,0.00852211,21.15,-14.85,70.65,-0.831072,0.777184,11.198
10778203,-0.0106526,0.00958738,0.00958738,21.45,-16.8,70.65,-0.845442,0.829874,11.2339
10791377,-0.0117179,0.00958738,0.00745685,22.05,-16.65,71.1,-0.852627,0.746049,11.1717
10814239,-0.0127832,0.00852211,0.00639159,21.6,-15.9,70.5,-0.850232,0.786764,11.186
10827377,-0.00106526,0.0117179,0.00639159,20.55,-15.15,70.5,-0.883762,0.793949,11.2387
10840374,-0.00745685,0.0138484,0.00745685,22.05,-15.9,70.8,-0.840652,0.743654,11.21
10863203,-0.0106526,0.0117179,0.00639159,22.8,-15.9,70.05,-0.869392,0.760419,11.2411
10876403,0.00106526,0.0149137,0.00532632,22.5,-16.05,70.35,-0.866997,0.805924,11.2339
10899203,-0.00958738,0.0138484,0.00426106,21,-14.7,69.75,-0.905317,0.791554,11.1381
10912376,-0.00532632,0.015979,0.00639159,21,-15.15,71.55,-0.905317,0.762814,11.2459
10935222,-0.00639159,0.0170442,0.00852211,21.3,-15.45,70.5,-0.826282,0.820294,11.2028
10948378,-0.00852211,0.0117179,0.00319579,22.05,-15.45,70.05,-0.886157,0.772394,11.198
10971203,-0.00426106,0.0117179,0.00639159,21.3,-15.45,70.8,-0.852627,0.729283,11.21
10984376,-0.0138484,0.00958738,0.00958738,21.6,-15.45,70.8,-0.881367,0.793949,11.1525
10997677,-0.00639159,0.0106526,0.00958738,21,-15.15,70.5,-0.821492,0.738864,11.2507
11020203,-0.00532632,0.0127832,0.00852211,23.4,-14.7,70.05,-0.835862,0.820294,11.2291
11033376,-0.0170442,0.0170442,0.00639159,22.2,-15.3,69.9,-0.950823,0.738864,11.1812
11056216,-0.00639159,0.0138484,0.00639159,22.2,-16.8,70.65,-0.936453,0.777184,11.2219
11069377,-0.00426106,0.00745685,0.00639159,21.9,-15.3,70.65,-0.977168,0.772394,11.0878
11092203,-0.00426106,0.00852211,0.0127832,22.35,-15.45,71.85,-0.917293,0.705333,11.2507
11104376,0,0,0.0117179,22.2,-15.3,70.65,-0.859812,0.813109,11.1166
11127209,-0.0117179,0,0.0106526,21.45,-15.3,71.4,-0.843047,0.746049,11.1812
11139379,-0.00106526,0.00319579,0.00745685,22.2,-16.05,70.35,-0.859812,0.758024,11.2196
11162203,-0.00852211,0.00958738,0.00958738,21.6,-15.15,71.1,-0.950823,0.746049,11.2148
11175401,-0.0106526,0.00319579,0.00426106,21.9,-15.6,70.95,-0.871787,0.772394,11.2148
11198203,-0.00213053,0.015979,0.0106526,21.45,-14.85,69.9,-0.831072,0.815504,11.2219
11210377,-0.0138484,0.0117179,0.00213053,21.6,-16.2,70.8,-0.883762,0.748444,11.1669
11233228,-0.0127832,0.0127832,0.00852211,22.05,-16.2,71.55,-0.866997,0.791554,11.2507
11246377,-0.00852211,0.0138484,0.00852211,21.3,-14.7,70.8,-0.874182,0.767604,11.2028
11259369,-0.0127832,0.0117179,0.00745685,21.6,-15.45,71.55,-0.859812,0.793949,11.1812
11282203,-0.02024,0.00745685,0.0106526,22.05,-15.45,70.5,-0.910107,0.817899,11.2435
11295414,-0.0106526,0.00319579,0.00639159,21.3,-15.15,71.85,-0.941243,0.750839,11.1812
11318203,-0.0127832,0.00745685,0.00639159,21.9,-15.3,70.95,-0.859812,0.753234,11.2076
11331373,-0.00639159,0.00319579,0.00745685,21.15,-15.6,70.35,-0.835862,0.791554,11.2052
11354244,-0.00852211,0.00319579,0.00426106,21.45,-15.6,70.35,-0.862207,0.803529,11.2076
11367378,-0.00319579,0.00852211,0.00958738,20.7,-15.3,70.95,-0.847837,0.777184,11.2579
11390203,-0.00532632,0.00319579,0.00532632,21.6,-15.9,69.45,-0.797542,0.784369,11.1621
11402376,-0.00745685,0.00532632,0.0106526,21.6,-15.45,69.75,-0.893342,0.748444,11.21
11425222,0,0.00426106,0.0106526,22.2,-15.3,70.35,-0.857417,0.793949,11.21
11438379,-0.0117179,0.00958738,0.00639159,21.9,-14.85,69.9,-0.898132,0.772394,11.2483
11451376,-0.00639159,0.00958738,0.00426106,21.6,-15.15,70.05,-0.814307,0.820294,11.2363
11474243,-0.0117179,0.00532632,0.00958738,20.7,-14.55,70.65,-0.900527,0.779579,11.198
11487377,-0.0127832,0.00958738,0.00745685,21,-16.2,70.5,-0.855022,0.810714,11.2459
11510203,-0.00319579,0.00852211,0.00852211,22.8,-13.95,71.1,-0.821492,0.781974,11.1573
11523376,-0.00745685,0.00745685,0.00958738,21.9,-15.3,70.35,-0.874182,0.786764,11.1932
11546203,-0.00426106,0.00958738,0.0106526,21.6,-15.45,71.1,-0.866997,0.774789,11.2579
11559377,-0.00106526,0.0127832,0.0127832,21.45,-14.85,69.9,-0.864602,0.837059,11.2076
11582203,-0.00426106,0.00852211,0.00532632,21.6,-14.7,70.8,-0.874182,0.793949,11.1836
11594418,-0.00958738,0.00745685,0.00958738,22.05,-15.45,71.55,-0.893342,0.796344,11.2124
11617203,-0.00319579,0.00745685,0.0127832,22.05,-16.2,71.1,-0.898132,0.753234,11.1932
11630377,-0.00532632,0.0127832,0.00745685,21.45,-15.6,70.65,-0.871787,0.743654,11.21
11643376,-0.00426106,0.00852211,0.00958738,22.2,-16.05,71.4,-0.871787,0.793949,11.1812
11666209,-0.00852211,0.00852211,0.00745685,20.55,-14.7,70.5,-0.864602,0.805924,11.2052
11679378,-0.0117179,0.00532632,0.00745685,21.9,-16.05,70.35,-0.773591,0.753234,11.2387
11702203,-0.00745685,0.0106526,0.00745685,21.15,-15.3,70.95,-0.886157,0.781974,11.2124
11715398,-0.00532632,0.00958738,0.00532632,21.9,-16.35,71.4,-0.902922,0.772394,11.1597
11738203,-0.00319579,0.00639159,0.00426106,21.45,-15.6,70.65,-0.819097,0.736469,11.1908
11750376,-0.00319579,0.00958738,0.00745685,22.05,-15.45,70.5,-0.895737,0.748444,11.2028
11773236,-0.00852211,0.0127832,0.00213053,22.05,-15.45,71.85,-0.869392,0.779579,11.1693
11786378,-0.00639159,0.0138484,0.0106526,20.55,-15.9,70.05,-0.855022,0.777184,11.2148
11809203,-0.00106526,0.0117179,0.0106526,21.3,-15.9,70.05,-0.816702,0.781974,11.1645
11822376,-0.00639159,0.0127832,0.00745685,20.55,-14.4,69.75,-0.838257,0.760419,11.1764
11835413,0,0.0106526,0.00852211,21.6,-14.4,70.5,-0.907712,0.805924,11.1956
11858203,-0.00532632,0.0106526,0.00319579,23.25,-15.6,69.9,-0.902922,0.765209,11.1956
11871374,-0.0106526,0.0117179,0.0106526,21.15,-14.85,70.65,-0.787961,0.786764,11.2004
11894239,-0.00532632,0.00745685,0.00852211,21.9,-16.05,71.7,-0.843047,0.803529,11.2076
11907377,-0.0117179,0.00745685,0.00532632,21,-15.45,70.5,-0.931663,0.791554,11.2339
11930203,-0.0117179,0.00639159,0.00213053,21.6,-15.9,69.45,-0.898132,0.827479,11.2243
11942377,-0.00745685,0.00852211,0.0127832,21.6,-14.7,71.1,-0.855022,0.688568,11.2531
11965222,-0.00426106,0.0117179,0.00852211,22.05,-15.45,70.05,-0.878972,0.777184,11.1717
11978378,-0.0106526,0.0106526,0.00639159,22.05,-14.7,70.8,-0.907712,0.846639,11.2315
12001203,-0.00639159,0.00958738,0.00639159,21.9,-13.8,69.9,-0.890947,0.748444,11.2148
12013418,-0.00532632,0.0127832,0.00639159,22.35,-15.9,70.5,-0.807122,0.793949,11.198
12036203,-0.0117179,0.0138484,0.00426106,22.8,-15.45,71.55,-0.866997,0.791554,11.2387
12049374,-0.00532632,0.0117179,0.00426106,21.3,-16.2,71.1,-0.881367,0.813109,11.1932
12062376,-0.00745685,0.0138484,0.00852211,21.9,-14.25,69.6,-0.919688,0.796344,11.1956
12085222,-0.0117179,0.00639159,0.0106526,21.9,-15.6,70.35,-0.730481,0.841849,11.1884
12098379,-0.00958738,0.015979,0.0149137,21.9,-15.6,71.4,-0.926873,0.712518,11.2219
12121203,-0.00106526,0.0127832,0.0117179,22.2,-14.55,70.95,-0.855022,0.736469,11.174
12133414,-0.00213053,0.00532632,0.00958738,22.05,-14.7,71.55,-0.881367,0.798739,11.1788
12156203,-0.0117179,0.00958738,0.00532632,22.35,-15.9,70.05,-0.888552,0.738864,11.1214
12169375,0.00213053,0.00532632,0.00639159,21.6,-15.45,71.1,-0.874182,0.765209,11.3249
12192204,-0.00319579,0.0117179,0.0106526,20.4,-16.05,72,-0.835862,0.803529,11.1812
12205378,-0.0170442,0.00639159,0.0117179,21.45,-16.05,70.95,-0.833467,0.705333,11.2196
12228203,0.00319579,0.00745685,0.00639159,22.05,-15.45,70.8,-0.852627,0.772394,11.2219
12240377,-0.0106526,0.0106526,0.00745685,21.6,-14.4,71.1,-0.874182,0.784369,11.1764
12263216,-0.00745685,0.00319579,0.00532632,22.5,-15.3,69.9,-0.878972,0.702938,11.2243
12276377,0.00319579,0.0106526,0.00532632,21.45,-15.3,72,-0.835862,0.755629,11.186
12289369,-0.0138484,0.00319579,0.00639159,22.2,-13.8,71.4,-0.814307,0.767604,11.1621
12312203,-0.00106526,0.0106526,0.00745685,21.3,-15.9,71.1,-0.814307,0.758024,11.2722
12325379,-0.00639159,0.00639159,0.0106526,22.35,-14.4,71.1,-0.799937,0.758024,11.2172
12348203,-0.00532632,0.00745685,0.00532632,21.15,-15.6,70.35,-0.862207,0.798739,11.2722
12360376,0,0.015979,0.00745685,21.6,-14.4,71.1,-0.929268,0.772394,11.2267
12383216,-0.00639159,0.0106526,0.00426106,22.05,-15.15,71.1,-0.931663,0.746049,11.1429
12396378,-0.00532632,0.00745685,0.00745685,20.7,-14.55,70.65,-0.886157,0.810714,11.2243
12419203,-0.00319579,0.00319579,0.00852211,21.6,-14.7,69.75,-0.912502,0.767604,11.1501
12431377,0.00319579,0.00532632,0.00958738,22.95,-15.3,70.65,-0.857417,0.798739,11.1669
12454210,-0.00426106,0.00745685,0.00426106,21.6,-15.15,69.45,-0.809517,0.769999,11.2028
12467373,-0.00426106,0.00958738,0.00958738,20.7,-14.55,70.65,-0.747246,0.746049,11.2196
12490203,-0.00426106,0.0117179,0.00958738,21.3,-14.7,70.05,-0.819097,0.729283,11.2148
12503378,-0.00532632,0.0138484,0.00532632,21.3,-14.4,70.5,-0.764011,0.815504,11.2196
12516379,-0.00852211,0.0106526,0.00745685,21.6,-14.7,69.45,-0.845442,0.769999,11.2842
12539203,0,0.0117179,0.00852211,22.2,-15.6,70.65,-0.821492,0.779579,11.2267
12551377,-0.00639159,0.00745685,0.0106526,22.35,-15.45,70.05,-0.857417,0.837059,11.1357
12574210,0.00106526,0.00958738,0.0106526,21.3,-13.95,69,-0.862207,0.753234,11.2172
12587373,-0.00745685,0.00532632,0.0106526,21.45,-15.3,70.35,-0.835862,0.789159,11.2219
12610203,-0.0149137,0.0106526,0.0117179,22.05,-15.45,69.75,-0.869392,0.801134,11.2243
12623378,-0.00106526,0.0138484,0.00958738,22.35,-15.9,70.8,-0.838257,0.753234,11.2148
12646203,-0.0117179,0.00532632,0.00532632,20.7,-13.5,70.65,-0.890947,0.87538,11.1597
12658373,-0.0138484,0.00639159,0.00532632,22.05,-14.4,69.45,-0.914898,0.808319,11.2555
12681216,-0.00213053,0.0106526,0.00852211,21,-16.2,69.75,-0.843047,0.789159,11.174
12694377,-0.00319579,0.0127832,0.00532632,21.6,-15.15,68.7,-0.792751,0.801134,11.186
12707674,-0.00852211,0.00532632,0.00745685,22.2,-15.6,69.9,-0.847837,0.832269,11.2315
12730203,-0.0127832,0.0106526,0.00745685,21.9,-15.3,69.9,-0.869392,0.767604,11.1525
12743381,-0.00532632,0.00745685,0.00639159,22.2,-16.35,69.3,-0.838257,0.765209,11.2076
12766203,0,0.00745685,0.00532632,21.6,-15.15,70.5,-0.866997,0.755629,11.1693
12778376,-0.00213053,0.0117179,0.00639159,21.9,-14.25,71.7,-0.807122,0.815504,11.2172
12801216,-0.0106526,0.015979,0.00958738,22.2,-14.85,70.65,-0.857417,0.803529,11.1908
12814377,-0.00532632,0.0106526,0.00213053,22.35,-13.95,70.8,-0.888552,0.863405,11.1812
12837203,-0.00532632,0.0127832,0.00532632,22.2,-15.3,70.95,-0.917293,0.779579,11.21
12849376,-0.0127832,0.00852211,0.00426106,22.05,-15.9,71.55,-0.917293,0.844244,11.1525
12872209,-0.0106526,0.0106526,0.00639159,20.7,-15.6,70.65,-0.816702,0.810714,11.2052
12885379,-0.00319579,0.0127832,0.00639159,21.45,-15.6,72,-0.931663,0.738864,11.2148
12908203,-0.00213053,0.0106526,0.00426106,21.6,-15.15,71.1,-0.797542,0.758024,11.1956
12921376,-0.0106526,0.0106526,0.00745685,21,-15.45,69.45,-0.893342,0.779579,11.2172
12934376,-0.00639159,0.00745685,0.00213053,20.55,-15.15,70.05,-0.881367,0.755629,11.1549
12957203,-0.0106526,0.0106526,0.00426106,21.9,-14.85,69.6,-0.814307,0.731678,11.21
12970377,-0.00319579,0.0117179,0.0117179,21,-15.45,70.8,-0.852627,0.753234,11.1477
12993203,-0.00639159,0.00852211,0.00852211,21.9,-15.3,70.35,-0.840652,0.805924,11.1884
13006378,-0.00958738,0.00745685,0.00745685,22.05,-15.9,69.45,-0.831072,0.786764,11.2339
13029203,-0.0117179,0.0127832,0.00213053,21.45,-15.3,69.9,-0.797542,0.813109,11.2004
13042382,-0.0106526,0.0127832,0.00319579,21,-14.4,69.45,-0.814307,0.765209,11.1788
13065203,-0.00958738,0.00958738,0.00958738,21.9,-14.25,70.65,-0.876577,0.758024,11.1884
13078376,-0.0106526,0.00745685,0.00426106,21.9,-14.85,70.65,-0.838257,0.791554,11.2291
13091382,-0.0106526,0.0127832,0.0106526,20.1,-16.05,69.9,-0.855022,0.86101,11.2483
13114210,-0.00958738,0.0106526,0.00745685,21.3,-15.45,70.5,-0.795147,0.729283,11.2052
13127373,-0.0127832,0.0106526,0.00745685,20.25,-14.7,70.5,-0.783171,0.793949,11.2124
13150203,-0.00106526,0.0138484,0.0106526,21.6,-13.95,70.8,-0.914898,0.731678,11.2124
13163378,-0.00319579,0.00532632,0.00426106,20.4,-14.25,70.95,-0.874182,0.784369,11.2124
13186203,-0.00852211,0.0127832,0.00958738,21.9,-14.85,70.65,-0.821492,0.781974,11.1717
13199373,-0.00958738,0.00958738,0.00745685,21.15,-15.6,70.35,-0.876577,0.810714,11.2196
13222216,-0.00319579,0.00958738,0.00745685,22.05,-15.45,70.05,-0.807122,0.798739,11.2459
13235377,-0.00639159,0.0127832,0.00532632,21.45,-14.85,71.4,-0.905317,0.834664,11.1788
13248376,-0.00319579,0.0117179,0.00958738,21.45,-14.55,70.35,-0.883762,0.738864,11.2722
13271203,-0.00319579,0.00852211,0.00745685,20.4,-13.8,71.4,-0.917293,0.767604,11.2028
13284375,-0.00532632,0.0138484,0.00852211,22.35,-15.15,70.05,-0.833467,0.803529,11.1884
13307203,-0.00745685,0.0138484,0.00745685,21.15,-13.5,70.65,-0.874182,0.734074,11.2531
13320377,-0.00106526,0.0149137,0.00639159,20.7,-16.35,69.6,-0.862207,0.805924,11.174
13343216,-0.00852211,0.0149137,0.00639159,22.8,-15.9,70.8,-0.826282,0.777184,11.1788
13356377,-0.0106526,0.0106526,0.00745685,21.3,-15.15,70.05,-0.823887,0.784369,11.2363
13379203,-0.00213053,0.0106526,0.00745685,21.45,-15.3,69.6,-0.838257,0.777184,11.2052
13392391,-0.00745685,0.0127832,0.00426106,21.15,-14.55,70.35,-0.852627,0.750839,11.1477
13405676,-0.00852211,0.0170442,0.00639159,21.3,-15.15,70.05,-0.845442,0.736469,11.2172
13428203,0.00213053,0.015979,0.00213053,21.45,-14.85,70.65,-0.866997,0.765209,11.2315
13440377,-0.00958738,0.0106526,0.00639159,21.45,-14.55,70.65,-0.922083,0.758024,11.1884
13463216,0.00106526,0.0138484,0.00532632,20.7,-15.3,72,-0.838257,0.746049,11.2339
13475377,0.00106526,0.0138484,0.00639159,21.6,-15.15,71.55,-0.821492,0.793949,11.2627
13498203,-0.00745685,0.0106526,0.00639159,22.05,-15.45,70.8,-0.929268,0.769999,11.1621
13510378,-0.00213053,0.00745685,0.0117179,22.2,-16.35,70.35,-0.941243,0.803529,11.301
13533209,-0.00319579,0.0117179,0.00745685,20.55,-15.15,70.5,-0.790356,0.789159,11.1908
13546378,-0.0170442,0.0181095,0.00852211,22.8,-15.45,71.1,-0.888552,0.743654,11.1573
13569203,0.00852211,0.0106526,0.00319579,21.6,-15.15,70.8,-0.888552,0.796344,11.2531
13581382,-0.0127832,0.0191748,0.0106526,21.15,-14.25,68.85,-0.835862,0.760419,11.1022
13604203,-0.00745685,0.0117179,0.00426106,21,-14.7,70.8,-0.917293,0.686173,11.289
13616376,-0.00319579,0.00958738,0.00532632,21.3,-15.45,71.1,-0.775986,0.803529,11.2243
13639216,-0.00958738,0.0181095,0.00639159,22.35,-14.4,71.1,-0.895737,0.755629,11.1956
13652378,-0.00319579,0.0127832,0.00639159,21.9,-15.3,70.95,-0.890947,0.750839,11.2076
13675203,-0.00852211,0.0127832,0.00532632,20.55,-14.7,70.5,-0.821492,0.762814,11.1261
13688376,-0.00639159,0.00639159,0.00319579,22.95,-14.55,70.95,-0.874182,0.746049,11.2004
13711209,0.00213053,0.00319579,0.00852211,22.05,-14.7,70.05,-0.855022,0.765209,11.2387
13724379,-0.0127832,0.00532632,0.0170442,21.3,-14.7,70.05,-0.898132,0.750839,11.1333
13737376,-0.0138484,0.00852211,0.00958738,21.3,-14.7,70.8,-0.821492,0.827479,11.2124
13760216,0,0.0106526,0.00745685,22.5,-14.55,70.35,-0.785566,0.820294,11.1645
13773377,0.00639159,0.0234358,0.015979,22.05,-15.45,71.85,-1.00351,0.705333,11.2219
13796203,-0.00639159,0.00745685,-0.00426106,20.7,-14.25,71.7,-0.852627,0.825084,11.3776
13808376,0.00213053,0.0106526,0.0138484,22.35,-15.45,72.15,-0.993933,0.779579,10.9848
13831209,0.0245011,0.00106526,0.00319579,22.5,-14.55,70.65,-0.756826,0.853824,11.0327
13844379,0,0.00745685,0.00745685,22.8,-15.45,70.8,-0.881367,0.729283,11.1908
13867203,0.036219,0.00319579,0.0149137,20.7,-16.05,70.95,-0.809517,0.803529,11.38
13880381,0.0106526,0.00213053,0.00745685,21.3,-15.15,70.5,-0.823887,0.820294,11.095
13903203,0.036219,-0.00852211,0.00852211,21.9,-14.55,70.35,-0.855022,0.87538,11.3178
13916377,0.0213053,0.00745685,0.0127832,21.45,-14.85,69.6,-0.866997,0.774789,11.0998
13929376,0.0181095,-0.00639159,-0.00426106,21.15,-13.8,70.95,-0.747246,0.89933,11.1597
13952209,0.00213053,0.015979,0.0138484,22.5,-14.55,70.95,-0.850232,0.846639,11.1693
13964378,0.0223706,0.0181095,0.0308927,21.9,-14.85,69.6,-1.02028,0.738864,11.2938
13987203,0.0330232,0.00639159,0.00319579,21.6,-15.45,70.5,-0.775986,0.983156,11.028
14000382,0.0213053,0.00852211,-0.00532632,21.3,-17.4,71.55,-1.04423,0.906515,11.4327
14023203,0.0266316,0.0372843,0.0351537,21.3,-14.4,70.5,-0.814307,0.676593,11.1405
14036376,-0.00319579,-0.00213053,-0.0255663,21.3,-15.15,70.8,-0.507744,1.19392,11.1501
14059216,0.0468716,0.0117179,-0.0223706,21.3,-15.15,71.55,-0.708926,1.18434,11.4495
14072378,-0.0213053,0.0276969,0.00532632,21.45,-16.05,70.65,-0.979563,0.604742,10.9848
14095203,-0.0532632,0.0436758,-0.00213053,22.2,-14.85,70.65,-1.02986,0.599952,11.2579
14107376,0.00852211,0.0468716,-0.00852211,22.05,-13.95,70.05,-1.08015,0.458646,11.1285
14130209,-0.0319579,0.0415453,-0.0383495,21.45,-15.3,70.95,-0.795147,0.9137,11.3178
14142379,0.0117179,0.076699,-0.02024,22.35,-15.45,68.7,-0.500559,0.999921,11.0687
14165203,0.0234358,0.0809601,-0.0266316,21.6,-16.65,69.45,-1.14721,0.803529,11.2148
14177381,0.0245011,0.0937433,-0.0372843,21.3,-14.7,70.8,-0.919688,0.877775,11.1573
14200203,-0.015979,0.0553937,-0.00319579,21.6,-13.95,70.5,-1.12805,0.832269,11.1046
14212377,0.0319579,0.0511327,-0.0191748,21.9,-14.85,70.65,-0.898132,0.90891,11.2531
14235247,0.0191748,0.0607201,-0.00106526,22.35,-13.95,69.75,-0.826282,0.719703,11.0303
14248383,0.0426106,0.0245011,-0.00106526,22.05,-14.7,70.5,-0.996328,0.89933,11.2698
14261374,0.0255663,0.0170442,0.00426106,22.95,-14.85,69.3,-0.790356,0.896935,11.3417
14284203,0.00639159,0.0127832,0.0138484,22.5,-16.05,71.4,-0.938848,0.849034,11.2243
14297382,0.0585895,0.0255663,0.0213053,21,-15.15,70.5,-1.41785,0.990341,11.313
14320203,0.00745685,0.00319579,0.00319579,21.45,-13.05,71.4,-0.792751,0.94244,11.083
14333376,0.0500674,-0.00106526,0.0106526,22.2,-14.55,70.65,-1.17835,1.10291,11.392
14356216,0.00852211,-0.0106526,0.015979,20.7,-14.85,71.4,-0.958008,0.987946,11.1357
14369378,-0.0213053,-0.0213053,-0.00319579,22.35,-14.4,69,-0.819097,0.906515,11.3513
14392203,0.00426106,0.00532632,0.0138484,22.8,-14.7,70.05,-0.934058,0.841849,11.1405
14405376,-0.00745685,0.00213053,0.00639159,21.45,-14.85,71.4,-0.962798,0.827479,11.1573
14418381,0,0.00852211,0.00639159,22.2,-14.25,70.65,-0.864602,0.920885,11.2938
14441203,-0.00745685,0.00319579,0.0149137,21,-14.4,71.1,-1.03944,0.882565,11.1285
14454377,-0.0287621,-0.00106526,0.00745685,21.9,-13.8,70.35,-0.943638,0.877775,11.198
14477216,-0.0127832,0.00852211,0.0149137,21.15,-15.6,70.95,-0.974773,0.868195,11.1956
14490377,-0.0245011,-0.00106526,0.00639159,21,-15.45,70.8,-1.09692,0.91849,11.1285
14513203,-0.0170442,-0.0138484,0.00852211,21.6,-14.4,71.1,-0.996328,0.813109,11.2435
14526377,-0.00106526,-0.00639159,-0.00958738,22.35,-13.95,70.05,-0.855022,0.36524,11.2267
14549209,-0.0181095,0.0255663,0.0330232,21.15,-14.55,71.4,-0.720901,0.635878,11.2435
14562378,0.0468716,0.00639159,0.0127832,21.3,-15.45,71.1,-1.4442,0.877775,11.1717
14575376,-0.00639159,-0.00106526,0.0415453,21.15,-14.85,70.35,-0.843047,0.585582,11.0399
14598216,-0.0170442,-0.0127832,0.0287621,21.3,-14.4,71.1,-1.0083,0.645458,11.1477
14611378,0.0213053,-0.0394148,0.015979,22.05,-13.95,71.1,-0.876577,0.853824,11.1597
14634203,0.00958738,-0.0276969,0.0319579,20.7,-14.25,71.4,-0.869392,0.87059,11.2004
14646376,0.0213053,-0.04048,0.0245011,20.7,-13.5,70.95,-0.941243,0.999921,11.2172
14669209,-0.0213053,-0.0266316,0.0245011,21.15,-13.8,70.95,-0.898132,0.97118,11.198
14682379,-0.0181095,-0.0170442,0.0149137,22.35,-14.4,71.85,-0.831072,0.88975,11.2651
14705203,-0.0106526,-0.0106526,0.0191748,22.2,-14.25,71.4,-0.754431,0.93765,11.2052
14717381,-0.0298274,-0.0138484,0.0149137,21.3,-14.7,69.75,-0.977168,0.887355,11.1022
14740203,0,-0.00852211,0.0170442,21.6,-13.2,71.1,-0.958008,0.846639,11.2004
14753377,0.00532632,-0.0106526,0.0181095,20.55,-13.65,70.8,-0.864602,0.954415,11.1285
14776216,-0.0223706,-0.0117179,0.015979,21.9,-13.5,69.6,-0.910107,0.877775,11.1645
14789377,0.0127832,-0.00745685,0.0181095,20.55,-13.95,70.8,-0.900527,0.8658,11.301
14802374,-0.0149137,-0.00745685,0.0117179,22.05,-14.7,70.8,-0.898132,0.877775,11.0447
14825203,-0.0106526,-0.0149137,0.0106526,20.4,-14.25,71.4,-0.780776,0.896935,11.2483
14837382,-0.02024,-0.02024,0.00958738,21.9,-13.8,70.65,-0.835862,0.810714,11.1764
14860203,-0.0213053,0.00319579,0.0287621,21.3,-13.95,70.05,-0.740061,0.949625,11.3058
14872376,-0.0394148,0.00319579,0.0298274,21.6,-14.4,69.75,-1.13524,0.767604,11.1645
14895246,-0.015979,-0.0287621,0.0138484,22.05,-13.95,70.5,-1.09692,0.705333,11.1908
14908378,-0.0191748,-0.0127832,0.00745685,21.15,-14.55,70.65,-0.790356,0.89933,11.1884
14931203,-0.0255663,-0.00852211,0.00319579,19.65,-14.85,70.35,-0.795147,0.959205,11.2339
14943376,-0.0170442,-0.0138484,0.00213053,21.15,-15.3,70.65,-0.811912,0.975971,11.1214
14967213,-0.0340885,-0.0149137,0.00958738,21.15,-15.6,71.7,-0.938848,0.88975,11.2339
14980379,0.0170442,-0.0223706,0.0127832,21,-15.15,70.05,-0.843047,0.839454,11.1573
14993376,-0.0191748,-0.0191748,0.02024,22.05,-13.2,70.05,-1.07057,0.712518,11.0663
15016216,0.0330232,-0.015979,0.0287621,21.3,-13.95,71.55,-0.905317,0.767604,11.3297
15029377,0.00532632,-0.00639159,0.0276969,22.5,-13.8,70.95,-0.859812,0.872985,11.0447
15052203,0.0138484,0,0.0181095,21.45,-14.25,69.6,-0.752036,0.834664,11.2698
15064376,0.0266316,0.00319579,0.0245011,21.15,-15.3,71.4,-0.725691,0.911305,11.1285
15087209,0.0255663,0.00106526,0.0213053,21.9,-15.3,70.35,-0.821492,0.9616,11.1405
15100379,0.0308927,-0.00532632,0.0181095,21.3,-14.7,70.5,-0.775986,0.839454,11.1429
15123203,0.0340885,0.00532632,0.0266316,21.9,-15.3,69.6,-0.807122,0.892145,11.2196
15136381,0.0415453,0.00213053,0.0351537,20.55,-15.15,69.75,-0.807122,0.916095,11.2243
15159203,0.0458064,0.00639159,0.0287621,21.3,-15.45,71.1,-0.778381,0.89454,11.2076
15172377,0.0479369,0.00958738,0.0298274,21.3,-13.95,71.1,-0.747246,0.91849,11.2219
15185376,0.0532632,0.00958738,0.0223706,21,-14.7,71.1,-0.744851,0.95681,11.1956
15208209,0.0532632,0.0213053,0.0351537,20.25,-15.15,70.8,-0.792751,1.02866,11.2579
15221378,0.0426106,0.0106526,0.0245011,21.15,-13.8,70.65,-0.816702,1.04064,11.1764
15244203,0.0351537,0.0106526,0.02024,21.3,-13.2,70.5,-0.723296,0.975971,11.2315
15257382,0.0468716,0.0223706,0.0308927,22.5,-13.8,70.65,-0.766406,0.95202,11.1381
15280203,0.056459,0.0266316,0.0340885,21.45,-13.05,69.9,-0.65863,0.968785,11.198
15293376,0.0628506,0.0340885,0.0340885,21.3,-13.95,71.55,-0.852627,0.89454,11.1118
15316216,0.0468716,0.0426106,0.0319579,21.15,-13.8,69.6,-0.754431,1.09093,11.1309
15329378,0.052198,0.052198,0.0287621,21.6,-14.4,70.05,-0.890947,1.16278,11.198
15342376,0.0628506,0.0500674,0.0340885,22.8,-13.65,70.05,-0.833467,1.07656,11.095
15365203,0.092678,0.0553937,0.0383495,22.05,-13.65,70.5,-0.888552,1.02387,11.1693
15378381,0.107592,0.0660464,0.0511327,22.35,-14.4,71.55,-0.852627,1.04782,11.0591
15401203,0.115049,0.072438,0.0426106,21.45,-13.05,71.4,-0.893342,1.1077,11.1261
15413377,0.143811,0.0575243,0.0266316,22.2,-14.25,72.45,-0.766406,1.16278,11.1573
15436216,0.132093,0.0607201,0.0106526,21.6,-13.65,69.75,-0.888552,1.14841,11.1429
15449377,0.135289,0.0671117,0.015979,22.95,-12.75,70.65,-0.852627,1.14841,11.186
15472203,0.168312,0.0788296,0.0170442,22.2,-12.3,72.45,-0.814307,1.2011,11.2603
15485377,0.194943,0.0862864,0.015979,22.8,-11.4,69.75,-0.759221,1.24421,11.2962
15508209,0.164051,0.1012,0.0255663,22.5,-12.3,70.35,-0.819097,1.18434,11.1501
15521378,0.174703,0.092678,0.0149137,21.15,-11.55,70.35,-0.893342,1.28253,11.0782
15534376,0.173638,0.0958738,0.00958738,22.05,-12.45,71.1,-0.955613,1.36396,11.1836
15557216,0.170442,0.0916127,0.02024,22.8,-11.85,70.05,-1.10171,1.48611,11.3273
15570378,0.198139,0.072438,0.0245011,21.3,-11.85,71.55,-0.998723,1.3448,11.0447
15593203,0.0980043,0.0639159,0.0276969,21.9,-11.55,71.4,-0.886157,1.43581,11.2914
15605376,0.170442,0.104396,0.0575243,23.4,-11.85,70.5,-0.941243,1.66813,11.313
15628209,0.0458064,0.0969391,0.04048,22.5,-10.8,70.65,-1.17356,1.49569,10.7022
15641379,0.102265,0.0894822,0.0298274,24.3,-12.3,70.95,-0.893342,1.58431,11.3728
15664203,0.0830906,0.0660464,0.0138484,23.1,-9.9,70.05,-1.1041,1.24421,10.7286
15677381,0.132093,0.056459,0.02024,22.95,-10.8,70.65,-0.924478,1.52204,11.3178
15700203,0.156594,0.076699,0.0372843,22.95,-9.75,72.75,-0.857417,1.48611,11.3513
15712377,0.0777643,0.0820254,0.0500674,22.8,-11.1,71.55,-0.864602,1.39989,11.4231
15735216,0.113983,0.0735032,0.0681769,23.85,-10.35,70.8,-0.902922,1.52443,11.4112
15748377,-0.0276969,0.036219,0.0479369,24.15,-9.15,71.55,-0.986748,1.17715,10.8028
15761374,-0.0106526,-0.00639159,0.0511327,23.1,-10.65,71.1,-1.04662,1.26098,11.6075
15784203,0.0671117,-0.0106526,0.0884169,23.4,-11.4,69.75,-0.6251,1.49569,10.5513
15796382,-0.0511327,0.00745685,0.111853,23.4,-9.9,71.85,-1.13524,1.32085,10.8411
15819203,0.0713727,0.0511327,0.138484,22.5,-10.5,70.65,-0.902922,1.5388,12.1057
15831376,-0.0937433,0.108657,0.150202,24.9,-9.9,71.85,-0.62031,1.19392,10.3765
15854234,-0.0490022,0.0862864,0.164051,24.15,-9.6,72.15,-0.953218,1.07417,11.4112
15867378,0.0703075,0.0735032,0.18216,24,-9,70.35,-1.42504,1.30648,10.8004
15890203,-0.0117179,-0.00639159,0.132093,24.15,-9.6,70.8,-1.18314,1.6849,10.7932
15902376,0.0266316,-0.0287621,0.111853,23.4,-9.9,70.5,-1.40588,1.48371,11.392
15925209,0.0245011,-0.0916127,0.0553937,23.4,-9.6,71.55,-1.2023,1.28972,11.4159
15937379,-0.0276969,-0.0543285,0.0735032,22.95,-9.75,70.65,-0.912502,1.08375,10.7382
15960203,-0.0234358,-0.0149137,0.0916127,22.95,-9.75,70.95,-1.14242,0.97118,11.095
15972419,-0.0106526,-0.00639159,0.0745685,24.45,-9.15,70.8,-1.02028,1.18673,11.2675
15995204,-0.103331,-0.0245011,0.0479369,23.4,-10.65,71.1,-1.40348,0.829874,11.119
16008369,-0.0255663,-0.0276969,0.00958738,24,-9.75,70.95,-1.04183,1.06938,11.1214
16031203,-0.00958738,-0.0181095,0.00426106,23.55,-10.5,70.35,-0.958008,1.2514,11.4303
16044378,-0.184291,-0.00639159,-0.0191748,22.95,-10.8,69.9,-1.24541,0.906515,11.5932
16067203,-0.168312,-0.0415453,-0.00745685,24.15,-9.15,70.5,-1.24062,0.532892,11.768
16079377,-0.122505,-0.0660464,-0.00319579,22.95,-10.8,69.3,-0.960403,0.616718,10.8292
16102216,-0.250337,-0.0937433,-0.0383495,22.5,-9.3,68.85,-1.19751,0.825084,11.9596
16114377,-0.245011,-0.111853,-0.0468716,22.5,-9.3,69.3,-1.33163,0.573607,11.9812
16137203,-0.296144,-0.0777643,-0.0500674,23.4,-10.65,68.4,-0.912502,0.690963,11.5381
16149377,-0.294013,0.00213053,-0.0426106,22.35,-10.65,68.4,-1.15679,0.554447,10.9824
16162675,-0.272708,0.0383495,-0.056459,23.25,-11.55,69.6,-1.35079,0.650248,11.2387
16185203,-0.257794,0.00745685,-0.0884169,21.9,-12,68.85,-1.25739,0.837059,11.6986
16197374,-0.356864,-0.0713727,-0.0884169,22.8,-11.4,69.75,-1.02267,0.750839,11.313
16220214,-0.32171,-0.0905475,-0.0607201,22.2,-10.8,68.55,-0.737666,0.753234,11.0423
16232378,-0.291882,-0.0308927,-0.0319579,22.05,-9.9,68.4,-0.704136,0.808319,10.8244
16255203,-0.289752,0.0245011,-0.02024,23.1,-11.1,67.95,-0.965193,0.911305,10.925
16267362,-0.243946,0.0500674,-0.0319579,22.8,-10.65,67.65,-1.13045,0.825084,10.8795
16290202,-0.152333,0.0308927,-0.0649811,22.8,-11.1,67.65,-1.09931,0.743654,10.8771
16302376,-0.213053,0.052198,-0.0841559,22.5,-10.05,67.8,-1.08973,0.547262,11.1669
16325204,-0.110787,0.0607201,-0.0884169,22.35,-10.65,66.6,-0.857417,0.95681,11.6962
16337375,-0.313188,0.0276969,-0.0980043,22.2,-11.55,66.75,-0.950823,0.839454,11.5956
16360203,-0.256729,-0.00532632,-0.0703075,22.2,-12,66.15,-0.802332,0.489782,11.1333
16372361,-0.22051,0.015979,-0.0383495,23.4,-11.1,67.05,-0.766406,0.379611,10.6567
16395272,-0.251402,0.076699,-0.00319579,22.5,-12.75,66.15,-0.816702,0.329315,11.4447
16408384,-0.265251,0.120375,0.0223706,21.3,-10.65,66.3,-0.787961,0.25507,11.1549
16431204,-0.3036,0.103331,0.0447411,24.15,-11.1,65.55,-0.402363,0.111368,10.5178
16443352,-0.188552,0.107592,0.169377,23.1,-12.15,65.25,-0.445474,-0.106578,11.3249
16466202,-0.216249,0.126766,0.245011,23.1,-11.1,66,-0.768801,0.420326,11.9165
16478366,-0.311057,0.0575243,0.249272,23.85,-11.4,64.5,-1.64059,0.226329,11.3489
16501204,-0.236489,-0.0735032,0.156594,23.25,-11.25,65.1,-1.59029,-0.159269,11.0447
16513496,-0.174703,-0.0820254,0.0894822,23.1,-11.4,67.05,-1.45378,0.32692,12.0003
16536205,-0.290817,-0.0575243,-0.00745685,22.8,-12.45,63.9,-1.78668,0.494572,11.7848
16548350,-0.352602,-0.0383495,-0.092678,22.05,-11.4,66,-1.58311,0.590372,11.847
16571204,-0.340885,0.0149137,-0.131028,22.05,-11.85,64.2,-1.13524,0.549657,10.5681
16584417,-0.193878,-0.00852211,-0.170442,23.25,-11.25,64.05,-0.881367,0.573607,10.7573
16607204,-0.151268,0.00213053,-0.136354,22.8,-11.85,63.9,-0.821492,0.31255,10.7861
16619378,-0.164051,-0.0415453,-0.144876,22.35,-12.15,63.15,-0.764011,0.793949,10.9729
16642216,-0.109722,-0.0958738,-0.156594,22.5,-10.5,64.65,-0.986748,0.487386,10.6232
16654373,0.0415453,-0.0628506,-0.126766,23.1,-11.1,64.2,-0.725691,0.93286,12.3356
16677203,-0.311057,-0.036219,-0.135289,22.95,-10.8,63.3,-0.526904,0.532892,12.0698
16689376,-0.3036,-0.00958738,-0.0713727,22.5,-11.25,62.25,-0.392783,-0.106578,10.9058
16712209,-0.189617,-0.02024,-0.015979,22.35,-11.1,63.15,-0.510139,-0.180824,10.3262
16724375,-0.12144,-0.036219,0.00745685,22.8,-12.15,63.9,-0.864602,0.207169,11.1118
16747203,-0.147006,-0.00958738,-0.00319579,22.35,-10.65,62.4,-1.00351,0.468226,11.3154
16759381,-0.13955,-0.0138484,-0.0426106,22.35,-12.45,63.15,-1.46575,0.444276,10.889
16782203,-0.0671117,-0.00958738,-0.108657,21,-11.1,62.1,-1.30529,0.595162,10.6256
16794377,-0.112918,0.0106526,-0.170442,22.8,-11.85,62.85,-1.19032,0.837059,11.9788
16817216,-0.177899,-0.0394148,-0.238619,22.8,-12.15,63.9,-0.922083,0.571212,10.6016
16830374,-0.0937433,-0.0777643,-0.236489,22.8,-11.1,63.45,-0.483794,0.714913,10.628
16843377,0.0138484,-0.0319579,-0.197074,22.5,-11.25,62.55,-0.656235,0.719703,10.5729
16866203,-0.0351537,-0.0308927,-0.2024,22.2,-11.25,61.95,-0.931663,0.621508,10.7932
16878379,0.0138484,-0.0468716,-0.219444,21.3,-12.45,63.15,-0.965193,0.506547,10.8819
16901203,-0.00639159,-0.052198,-0.246076,21.6,-10.65,62.85,-1.14482,0.420326,10.6855
16923203,0.0149137,-0.0713727,-0.278034,22.05,-11.1,60.75,-1.29331,0.714913,11.1836
16935418,-0.0777643,-0.0905475,-0.290817,21.3,-9.9,61.05,-0.919688,0.659828,10.7765
16948374,-0.0447411,-0.104396,-0.238619,21.9,-10.05,62.25,-0.696951,1.21547,12.3308
16971203,-0.22051,-0.189617,-0.170442,21,-10.35,62.1,0.0981958,0.992736,10.6807
16983375,-0.215183,-0.211988,-0.0351537,21.3,-10.65,61.35,0.512534,0.920885,10.9537
17007209,-0.24075,-0.175769,0.118244,21,-12.15,62.1,0.356858,0.813109,11.368
17020374,-0.126766,-0.0980043,0.224771,21.3,-10.65,61.35,-0.749641,1.86452,8.5515
17043203,0.466586,-0.24075,0.052198,21.45,-12,61.95,-1.6334,2.74589,7.79468
17055404,0.448476,-0.154463,-0.156594,20.7,-11.25,61.5,-1.73878,1.22266,11.9764
17078203,0.274838,-0.0969391,-0.264186,22.05,-10.35,61.8,-0.687371,-1.09812,13.2936
17090377,0.0266316,-0.00319579,-0.234358,21.15,-10.8,61.95,0.502954,-1.50766,9.81607
17113242,0.687096,0.115049,-0.1012,21.3,-10.35,62.4,1.49449,-0.595162,9.04009
17126374,0.672182,0.216249,0.0948085,19.95,-9.9,62.85,2.52675,0.195194,12.1009
17149203,0.438889,0.257794,0.282295,20.1,-9.3,60.45,0.285007,0.743654,12.5703
17161373,0.631702,0.20027,0.218379,20.7,-8.7,61.5,-3.6069,0.391586,10.3334
17174720,0.664725,-0.0330232,0.0468716,20.7,-7.5,61.2,-2.96264,0.896935,12.077
17197203,0.453803,-0.171508,0.00213053,20.55,-6.9,61.8,-0.950823,2.25012,12.8458
17209377,0.0809601,-0.0436758,-0.0298274,20.7,-8.7,60.45,-0.419128,1.06938,12.2231
17232207,0.309992,0.0234358,-0.0234358,21.6,-6.9,61.05,-0.431104,0.453856,12.2063
17245377,0.192813,0.0500674,0.0117179,21.9,-6,60.9,-0.495769,0.587977,10.7238
17268203,0.2024,0.04048,0.0479369,20.55,-6.6,61.05,-0.780776,0.568817,11.5596
17281373,0.315318,0.0415453,0.0671117,21.45,-5.7,61.95,-0.790356,0.789159,11.0447
17304216,0.185356,0.00958738,0.0713727,21,-6.15,60.75,-0.124541,1.02387,11.1956
17317377,0.221575,0.0276969,0.0671117,20.25,-5.1,58.95,-0.843047,1.49569,11.9836
17340203,0.0500674,0.0127832,0.0106526,21.3,-5.85,60,-0.665815,1.15081,11.6028
17352389,0.149137,0.0820254,0.0426106,21.45,-5.25,60.15,-0.811912,0.88496,11.1693
17375204,0.113983,0.209857,0.225836,22.05,-5.55,61.05,-1.63819,0.587977,12.7188
17387375,0.142745,0.150202,0.145941,21.45,-4.5,59.85,-2.88839,0.573607,10.1849
17410203,0.0884169,-0.0660464,0,21.3,-5.85,60.75,-0.716111,1.56515,11.6626
17422382,0.11931,0.0713727,0.0937433,21,-5.1,59.7,-1.02507,1.08375,11.301
17445203,0.0575243,0.0106526,0.00106526,21.15,-5.7,60.45,-0.433499,1.25858,10.9489
17457374,0.0287621,0.0628506,0.00745685,22.05,-5.55,61.35,-0.514929,1.04064,11.2675
17480219,0.092678,0.124636,-0.0266316,21.45,-4.95,60.9,-0.608335,1.08135,11.2507
17493374,0.0532632,0.100135,-0.0628506,21.3,-5.1,60,-0.627495,0.85622,10.9944
17506376,0.0500674,0.0937433,-0.0394148,21.3,-5.1,60,-0.704136,1.12686,11.277
17529203,0.0468716,0.103331,-0.0298274,21.9,-3.75,60.15,-0.864602,1.05501,11.3441
17541382,0.0426106,0.0756338,-0.0255663,21.45,-4.95,61.5,-0.452659,1.11728,11.1836
17564203,0.0213053,0.0862864,-0.0106526,21.9,-5.25,60.9,-1.17356,0.769999,11.1597
17576376,0.0756338,0.0660464,0.0106526,21.15,-4.95,61.5,-0.661025,0.705333,11.3106
17599219,0.0532632,0.102265,0.00532632,21.9,-4.5,60.15,-0.847837,0.849034,10.913
17612373,0.0703075,0.145941,-0.0106526,22.35,-5.85,60.3,-1.25978,0.999921,11.1932
17635203,0.0532632,0.0873517,-0.00426106,21.45,-4.5,59.85,-1.17595,0.935255,11.2579
17647376,0.0639159,0.0692422,-0.00745685,21.15,-5.7,60.9,-0.821492,1.13404,11.2962
17670209,0.00958738,0.0585895,0.0223706,22.2,-4.2,60.9,-0.938848,0.86101,11.2435
17683374,0.0681769,0.0703075,0.04048,21.6,-3.6,60.75,-1.29092,0.798739,11.1788
17706203,0.056459,0.0308927,-0.0213053,22.5,-4.2,60.15,-0.871787,0.9616,10.9872
17719384,0.0394148,0.0798948,0.0319579,22.95,-4.5,61.95,-0.356858,1.249,11.3321
17742203,0.0873517,0.0479369,0.00639159,21.3,-3.6,60.75,-0.766406,1.64658,11.1621
17755374,0.0458064,0.0735032,0.0319579,20.4,-4.5,60.15,-0.953218,1.40947,11.1501
17768374,0.0426106,0.0692422,0.0276969,21.9,-4.5,61.2,-1.03944,1.13644,11.2962
17791209,-0.00958738,0.0479369,0.0372843,22.5,-3,61.2,-0.589175,0.655038,11.0591
17804376,0.00319579,0.0138484,0.015979,22.8,-4.05,60.3,-0.917293,1.09093,11.2219
17827203,0.0106526,0.0127832,0.0117179,23.1,-4.05,60.3,-0.876577,1.22984,11.2603
17840382,-0.0287621,0.0106526,0.00852211,21.3,-5.1,61.8,-0.979563,1.26577,11.1429
17863203,-0.0671117,-0.015979,-0.00532632,23.4,-4.35,60,-1.1544,1.15081,11.1788
17875376,-0.0671117,-0.0117179,-0.00532632,22.35,-3.6,61.8,-0.878972,1.30409,11.186
17898219,-0.0426106,0.0255663,0.00639159,22.35,-4.35,60.75,-1.152,1.0119,11.2986
17911373,-0.0191748,0.0287621,-0.00745685,21.9,-4.2,61.2,-0.65863,1.249,11.0854
17934203,-0.056459,0.0308927,0.00213053,21.9,-3.75,60.45,-1.05381,1.0598,11.2196
17946376,-0.00639159,0.0276969,-0.00319579,22.35,-3.6,59.25,-0.838257,1.13644,11.2052
17969209,-0.0479369,0.0479369,0.0106526,21.9,-4.2,59.4,-0.855022,1.25379,11.0759
17982374,-0.0255663,0.0330232,-0.00532632,22.2,-6.45,60.9,-1.01549,1.02866,11.198
17995374,0.02024,0.0170442,-0.00745685,23.25,-4.2,59.4,-0.687371,1.18913,11.2243
18018219,-0.00958738,0.0468716,0.015979,22.2,-4.5,60.9,-1.00351,1.06219,10.9633
18031374,-0.00319579,0.0170442,-0.0138484,22.05,-4.8,60.3,-0.977168,1.0598,11.2507
18054203,0.0245011,0.0319579,0.00319579,23.25,-4.95,59.85,-0.711321,1.10051,11.1908
18066374,-0.00639159,0.0255663,0.00532632,22.35,-4.05,60,-0.977168,1.08375,11.1094
18089209,0.00745685,0.0181095,0.00532632,21.9,-5.25,60.9,-0.958008,1.13165,11.2076
18102376,0.0127832,0.0447411,-0.00532632,22.2,-3.45,60.15,-1.06099,1.0095,11.0543
18125203,0.00426106,0.0149137,0.00426106,22.2,-4.95,60.15,-0.807122,1.16278,11.2459
18137382,0.015979,0.0234358,0.0181095,22.8,-5.1,61.05,-0.998723,1.06219,11.1764
18160203,0.00745685,0.0298274,-0.00213053,22.8,-4.8,60,-0.893342,1.05261,11.1094
18172376,0.00319579,0.0756338,0.00426106,22.05,-4.05,58.95,-0.943638,1.17236,11.2124
18195242,0.00106526,0.0990696,-0.0127832,21.9,-5.25,60.9,-1.03225,1.17955,11.0902
18208373,-0.00319579,0.100135,0,22.05,-2.85,61.05,-1.0586,1.2011,11.1788
18231203,-0.00319579,0.072438,-0.00319579,23.85,-4.35,60.75,-1.06578,1.19152,11.1285
18243376,-0.0287621,0.0500674,0.00426106,22.5,-4.2,61.95,-0.876577,1.27295,11.1597
18256374,-0.00319579,0.00213053,-0.0138484,22.95,-4.2,59.85,-0.871787,1.33762,11.107
18279203,-0.0308927,0.00319579,0.0149137,23.4,-4.35,61.05,-1.03944,1.17236,11.2531
18291374,-0.015979,-0.0426106,0.00852211,23.25,-4.2,60.45,-1.14242,0.87059,11.0232
18314254,-0.0990696,-0.0276969,0.0308927,22.2,-4.5,60.9,-1.19032,0.695753,10.9513
18327378,-0.0415453,-0.056459,0.0149137,22.2,-4.2,60.9,-1.31487,0.597557,11.0663
18350203,-0.052198,-0.0149137,0.0447411,21.6,-5.1,60,-1.0562,1.20829,11.2579
18362374,0.0394148,-0.0969391,0,22.5,-4.95,59.85,-1.1999,1.03106,11.1118
18385214,-0.0170442,-0.0777643,0.0330232,22.5,-3,60.45,-0.838257,1.06938,11.0399
18397376,-0.0117179,-0.120375,-0.00958738,23.25,-4.95,61.5,-0.826282,1.40468,11.2076
18420203,-0.0543285,-0.0820254,0.015979,21,-5.55,60.3,-0.713716,1.25619,11.3225
18432387,-0.0703075,-0.0713727,0.0511327,22.05,-4.05,59.7,-0.701741,1.27535,11.2172
18455204,-0.0351537,-0.0660464,0.0234358,21.9,-4.95,61.95,-1.09213,1.04543,11.0495
18467374,-0.0713727,-0.0500674,0.0308927,22.35,-5.1,62.1,-0.720901,1.06698,11.1621
18490203,-0.0372843,-0.0596548,0.0234358,22.95,-5.25,60.15,-0.898132,1.04782,11.2196
18502382,-0.0351537,-0.0500674,0.0170442,22.8,-4.35,60,-1.00351,1.14123,11.1597
18525203,-0.0490022,-0.052198,0.0351537,23.1,-4.05,61.8,-0.953218,1.00711,11.2603
18537374,-0.0117179,-0.0585895,0.015979,21.9,-4.95,60.15,-0.756826,1.09333,11.2698
18560219,-0.0330232,-0.036219,0.0266316,22.35,-5.1,60,-0.931663,1.04543,11.1142
18573373,-0.0149137,-0.0372843,0.00532632,21.45,-4.2,60.45,-0.665815,1.14362,11.1884
18596203,-0.0149137,-0.0276969,0.0245011,22.8,-4.8,60.3,-0.799937,0.985551,11.1836
18608374,0.0287621,-0.0213053,0.0255663,22.2,-5.25,61.5,-0.773591,1.13165,11.2459
18631209,0.0351537,-0.0372843,0.0276969,22.5,-4.2,60.9,-0.728086,1.03106,11.0615
18643376,0.0532632,-0.0308927,0.0287621,21.3,-4.8,60.75,-0.907712,0.832269,10.9872
18666203,0.0852212,-0.0447411,0.0340885,21.45,-3.45,61.5,-0.802332,1.08375,11.1932
18678382,0.111853,-0.0340885,0.04048,22.2,-4.2,60.9,-0.864602,1.14123,11.0399
18701203,0.120375,-0.0234358,0.0575243,21.9,-4.2,61.2,-0.5772,1.00232,11.2794
18713376,0.158724,-0.00639159,0.0649811,21.15,-3.75,60.9,-0.730481,1.23463,11.0902
18736203,0.166181,-0.0191748,0.104396,21.45,-3.45,61.95,-0.790356,1.09812,11.4327
18748374,0.138484,0,0.109722,22.2,-4.95,60.9,-0.677791,1.0598,11.507
18771203,0.190682,0.00106526,0.0990696,22.05,-3.3,61.05,-0.471819,1.45258,11.4279
18783376,0.138484,0.0490022,0.108657,21.45,-3.45,60.15,-0.847837,1.17236,11.2938
18807222,0.0394148,-0.00958738,0.0905475,22.8,-3.6,60.75,-0.828677,1.249,11.5477
18820374,0.205596,-0.00213053,0.150202,21.6,-3.6,60,-0.696951,1.42144,11.7824
18833374,0.151268,-0.0426106,0.164051,21.9,-4.5,61.2,-0.60594,1.51006,10.4316
18856219,-0.0245011,-0.04048,0.184291,22.8,-4.35,60.75,-0.799937,1.31127,11.3752
18869374,0.116114,-0.0181095,0.239684,23.55,-4.5,61.95,-1.21906,1.4909,11.8638
18892203,0.036219,-0.0543285,0.246076,21.9,-3.45,60.15,-1.23344,0.872985,10.525
18905374,-0.056459,-0.0830906,0.225836,22.35,-2.55,61.8,-0.996328,0.374821,11.8303
18928209,0.0298274,-0.0628506,0.24288,22.5,-2.4,60.9,-0.500559,0.00119751,11.5596
18940376,-0.158724,-0.0319579,0.280165,21.3,-3.6,61.35,-0.718506,-0.508942,10.9489
18963203,-0.188552,0.00213053,0.234358,22.5,-2.4,61.5,-0.838257,-0.300575,12.1225
18975401,-0.306796,0.00958738,0.198139,21.9,-4.2,59.4,-0.778381,-0.896935,10.4891
18998203,-0.258859,0.0415453,0.201335,22.8,-2.85,61.35,-0.546064,-0.8658,11.368
19011376,-0.168312,0.0628506,0.206661,20.7,-3.45,60.45,-0.505349,-0.652643,11.4782
19024374,-0.271642,0.00319579,0.223706,21.6,-3.6,61.35,-0.965193,-0.944835,10.5897
19047209,-0.144876,-0.00852211,0.167247,22.05,-2.1,60,0.0479004,0.417931,12.1512
19060374,-0.32171,0.113983,0.259925,22.05,-2.55,61.35,0.622705,0.619113,12.3189
19083203,-0.34195,-0.0628506,0.076699,22.05,-3.6,60.75,-2.20581,-1.20589,11.1333
19095376,-0.357929,-0.0213053,0.172573,23.85,-1.35,60.3,0.469424,-0.0323328,11.6842
19118203,-0.294013,-0.00319579,0.165116,22.05,-3.3,61.35,-0.936453,-0.798739,11.2435
19131374,-0.372843,0.00745685,0.162985,22.95,-3.45,61.5,0.0838257,-0.154479,11.5453
19154254,-0.313188,0.0745685,0.235423,23.1,-2.1,61.35,-0.438289,-0.231119,11.8039
19167375,-0.481499,0.0585895,0.259925,22.35,-3.3,60,0.258662,-0.116158,10.9992
19190203,-0.400539,0.0553937,0.349407,22.5,-3.45,60.45,-0.361648,-0.0514929,11.871
19202374,-0.331297,0.00106526,0.332363,22.5,-3.45,61.2,-0.979563,0.276625,10.834
19225222,-0.328101,0.0191748,0.209857,22.2,-3.45,62.25,-1.85135,0.0490979,10.8364
19238376,-0.183225,0.0553937,0.0500674,22.8,-3.6,61.05,-1.93997,-0.101788,12.065
19251372,-0.336624,0.0426106,-0.120375,22.35,-3.3,62.4,-2.09804,-0.690963,11.289
19274253,-0.416518,0.0308927,-0.259925,23.55,-3.75,61.5,-1.28613,-0.408351,12.0506
19287373,-0.284426,0.122505,-0.317449,23.1,-2.55,61.05,-1.11847,-0.190404,11.574
19310203,-0.516653,0.151268,-0.388821,23.4,-3.3,61.35,-0.989143,-0.0946033,10.9274
19323374,-0.374973,0.162985,-0.413323,22.95,-4.95,61.5,-0.646655,0.0490979,10.6974
19347209,-0.248207,0.155529,-0.385626,23.4,-5.1,61.8,-0.467029,0.0874182,10.2903
19360376,-0.187487,0.149137,-0.389887,23.25,-5.7,62.25,-0.409548,0.427511,11.0998
19373372,-0.175769,0.302535,-0.369647,23.4,-5.85,61.8,-2.08846,-0.413141,8.93471
19396219,-0.0500674,0.116114,-0.461259,23.55,-4.95,61.5,-0.519719,0.813109,11.1764
19409373,0.154463,-0.0149137,-0.381365,23.55,-4.5,62.25,0.153281,0.674198,13.102
19432203,-0.496413,-0.0181095,-0.347276,23.4,-4.05,62.85,-0.263452,0.86101,12.338
19444374,-0.225836,-0.0234358,-0.290817,24.45,-5.55,62.4,-0.699346,0.487386,10.8699
19467209,-0.0191748,-0.0532632,-0.256729,24.45,-5.55,62.4,-0.0694556,0.571212,9.51909
19479376,-0.280165,-0.0213053,-0.236489,24.15,-5.55,61.8,0.0742456,0.190404,11.5525
19502203,0.0394148,0.0415453,-0.112918,23.85,-6.15,62.1,-0.0431104,0.290995,11.289
19514423,-0.136354,-0.0916127,-0.0852212,24.15,-6.15,63.15,-0.541274,0.156874,10.9896
19537203,-0.256729,-0.0937433,-0.00958738,23.25,-5.7,63,-0.411943,0.516127,13.7679
19549374,-0.309992,-0.0788296,0.0490022,24.9,-5.1,62.85,-0.962798,-0.0467029,11.483
19572215,-0.393083,-0.104396,0.0245011,22.8,-6.15,62.4,-1.02986,-0.25507,10.0484
19585375,-0.192813,-0.0532632,0.00213053,23.55,-5.25,61.95,-1.18793,-0.0706531,11.1357
19608203,-0.153398,-0.00852211,-0.02024,23.85,-5.55,63.15,-1.02507,0.348475,10.9801
19620373,-0.288687,-0.0255663,-0.0639159,23.85,-5.55,62.4,-1.21428,0.202379,10.1466
19643220,0.1012,0,-0.0500674,23.85,-6.6,62.4,-1.13284,0.166454,10.7956
19656372,-0.158724,0.0660464,-0.0937433,23.85,-7.35,62.85,-1.68609,0.832269,13.2026
19679203,-0.318514,0.0980043,-0.157659,22.5,-6,63,-1.79866,0.219144,12.18
19691382,-0.318514,0.0532632,-0.232228,22.95,-6,63,-1.51365,-0.276625,10.3573
19714209,-0.239684,0.0394148,-0.278034,23.4,-6.15,62.85,-1.05381,0.0275427,11.0735
19727373,-0.309992,0.0735032,-0.290817,24.15,-6.6,62.1,-0.811912,0.233514,10.81
19740372,-0.272708,0.1012,-0.265251,24,-6.45,63,-0.538879,0.243094,10.5034
19763220,-0.0479369,0.176834,-0.192813,24.3,-6.75,61.95,-0.246687,0.168849,10.0101
19776374,-0.235423,0.209857,-0.142745,24,-7.2,61.95,-0.608335,0.669408,12.6566
19799203,-0.268447,0.107592,-0.0841559,23.4,-7.65,62.4,-0.517324,-0.0969983,11.3369
19811386,-0.338754,0.0447411,-0.0276969,24.45,-7.35,63.15,-0.00479004,-0.216749,10.1131
19834210,-0.238619,0.092678,0.0660464,25.2,-7.35,63.15,-0.237107,0.221539,12.0003
19847373,-0.329167,0.109722,0.113983,24.3,-6.75,61.95,-0.61552,0.176034,10.7118
19870206,-0.298274,0.0884169,0.111853,24.75,-7.2,62.55,-0.752036,-0.0299377,10.1322
19882382,-0.0809601,0.0809601,0.106526,24.15,-8.1,62.4,-0.919688,0.00359253,10.4651
19905203,-0.0905475,0.0458064,0.0585895,23.55,-8.25,62.25,-0.938848,-0.00359253,10.4987
19917374,-0.116114,0.0255663,0.0266316,25.2,-8.1,62.1,-0.711321,0.063468,11.1836
19940221,-0.0319579,0.0394148,0.0319579,24.75,-8.25,62.55,-0.479004,-0.171244,10.5226
19953373,-0.0149137,0.0671117,0.0617853,24.9,-8.1,63.15,-0.318538,0.374821,9.5646
19966373,0.353668,0.0692422,0.0809601,23.55,-8.25,63,-0.747246,0.916095,10.3142
19989203,0.376038,0.129962,0.0873517,24.75,-6.75,63,-1.08494,0.944835,9.29156
20001382,0.622114,0.116114,0.0287621,25.05,-8.7,62.25,-1.68609,1.16278,10.4052
20024203,0.52411,0.0596548,-0.02024,25.35,-5.25,62.55,-1.49449,1.70166,13.2026
20036375,0.376038,0.0660464,-0.0308927,24.75,-6.45,62.55,-1.0562,0.758024,12.8889
20059221,0.0255663,0.0873517,-0.0713727,24.75,-6.75,63.6,-0.814307,-0.585582,11.198
20072372,0.282295,0.0937433,-0.0788296,25.05,-6.75,63.3,-0.340093,-0.690963,10.7477
20095203,0.288687,0.116114,-0.00532632,26.1,-6,63,-0.526904,-0.980761,10.9322
20107372,0.298274,0.0894822,0.0394148,25.65,-5.55,62.4,-0.890947,-0.540077,11.1884
20130209,0.46339,0.0330232,0.0671117,25.8,-4.95,63,-1.19511,0.0179626,11.8518
20143373,0.26099,-0.00319579,0.0607201,25.2,-5.85,62.1,-1.01549,-0.180824,11.4231
20166203,0.2024,-0.0117179,0.0447411,25.8,-4.95,61.95,-1.24541,0.173639,12.3452
20178382,0.235423,-0.00852211,0.0415453,26.7,-2.85,62.1,-1.02986,-0.231119,10.616
20201203,0.251402,-0.0234358,0.0245011,25.05,-4.5,63,-1.152,-0.207169,11.0184
20213376,0.264186,-0.00106526,0.0756338,26.1,-3.45,63.6,-1.48252,-0.065863,11.5836
20236221,0.230097,-0.076699,0.0234358,25.05,-2.7,64.05,-1.37235,0.295785,11.507
20249371,0.276969,-0.104396,0.00319579,26.1,-3.75,62.55,-1.20948,0.0323328,11.2172
20272203,0.274838,-0.137419,0.00426106,26.4,-3.75,63.3,-0.673001,-0.300575,10.5801
20284373,0.352602,-0.115049,0.0394148,25.05,-2.4,62.55,-0.457449,-0.267045,10.3669
20307209,0.541154,-0.131028,0.0820254,25.65,-2.85,62.85,-0.538879,0.520917,11.8255
20320372,0.173638,-0.112918,0.0692422,25.8,-1.2,64.05,-0.969983,0.631088,11.7584
20333374,0.351537,-0.0841559,0.0617853,26.25,-2.55,63.9,-1.39151,0.33171,11.0016
20356221,0.249272,-0.138484,0.04048,26.1,-1.2,62.25,-1.22386,0.192799,11.8087
20369372,0.257794,-0.158724,0.0223706,25.95,-0.3,62.85,-0.744851,0.492177,10.7645
20392203,0.248207,-0.15979,0.0351537,25.05,-0.45,63.6,-1.01309,0.30776,11.2627
20405372,0.392017,-0.205596,0.0255663,25.35,0.15,63.3,-0.661025,0.540077,10.7861
20428209,0.336624,-0.131028,0.0308927,25.8,-1.95,64.05,-0.749641,0.822689,12.4554
20441373,0.204531,-0.0692422,0.02024,24.3,-0.15,62.55,-0.500559,0.640668,11.2914
20464203,0.187487,-0.0383495,0.00319579,23.85,1.35,63.15,-0.318538,0.595162,11.9452
20476382,0.12144,0.00106526,0.0117179,24.9,1.05,63.9,-0.471819,0.755629,11.1956
20499203,0.162985,0.0181095,0.0255663,25.8,1.65,63.6,-0.953218,0.662223,11.6507
20512375,0.224771,0.0372843,0.0394148,25.05,0.9,62.25,-0.759221,0.93765,10.8962
20525372,0.0937433,0.00958738,0.0149137,25.35,-0.15,61.95,-0.898132,0.743654,11.5668
20548209,0.219444,0.04048,0.00213053,25.35,0.45,63.6,-0.505349,1.01669,11.6052
20561372,0.0255663,0.0383495,0.00426106,24.15,0,63.45,-0.550855,0.882565,11.3225
20584203,0.0490022,0.0713727,0.0117179,26.25,1.35,64.5,-0.687371,1.03585,11.5764
20596384,0.0181095,0.0777643,0.0149137,24.15,1.8,62.4,-0.711321,0.772394,10.9345
20619203,0.015979,0.0660464,0.00106526,26.85,0.45,63.3,-0.864602,0.671803,11.198
20631375,0.115049,0.0735032,0.0106526,26.25,1.35,63.15,-0.936453,0.722098,11.3225
20654251,0.00106526,0.0596548,-0.02024,24.45,2.1,62.4,-0.752036,1.0598,11.0208
20667379,-0.00639159,0.132093,0.036219,25.8,1.2,63.6,-1.69567,0.456251,11.1118
20690203,0.0383495,0.0394148,-0.0191748,25.8,1.65,64.35,-0.335303,1.1053,11.2483
20702372,0.0191748,0.0266316,0.0319579,25.35,1.65,62.25,-0.764011,0.396376,11.2722
20725222,0.0447411,0.129962,0.072438,26.25,2.1,63.15,-1.57592,0.750839,10.9154
20738373,0.107592,-0.0319579,-0.0671117,25.2,0.6,62.85,-0.306563,0.93286,11.3417
20761203,0.0330232,0.117179,0.0372843,25.35,2.4,63.3,-0.438289,1.13883,11.3489
20773416,0.00213053,0.0575243,0.00958738,25.2,2.55,62.4,-0.886157,0.729283,11.0447
20796203,0.072438,0.0276969,-0.0149137,24.9,2.85,62.4,-0.950823,0.973575,11.3561
20809374,0.0447411,0.0713727,0.0255663,24.45,2.1,63.45,-0.735271,0.781974,11.2555
20822372,0.04048,0.0447411,0.00532632,25.95,1.35,62.4,-0.735271,0.801134,10.9202
20845222,0.0585895,0.0543285,0.0276969,26.85,3,64.05,-1.10889,0.92328,11.2411
20858372,0.0681769,0.0543285,0.00958738,25.8,1.65,61.95,-0.883762,0.693358,11.1477
20881203,0.0500674,0.0394148,-0.0127832,26.7,1.8,64.5,-0.790356,0.983156,11.3896
20894422,-0.0149137,0.405866,0.0671117,26.4,1.2,63.6,-0.943638,0.729283,11.0232
20917203,0.216249,-0.152333,-0.153398,26.7,1.8,64.2,-2.61057,0.853824,12.8051
20929375,0.0692422,0.0575243,0.0553937,26.1,2.4,63,0.411943,1.21308,10.5849
20952214,-0.132093,0.0852212,-0.0245011,24.45,2.1,63.45,-0.519719,0.949625,11.2555
20965376,0.124636,0.100135,0.0191748,26.4,1.95,64.05,-0.656235,0.810714,11.1261
20978669,0.0223706,0.0426106,-0.0127832,26.85,3,63.3,-1.09452,1.00232,11.0112
21001203,0.0394148,0.0298274,0.0149137,26.25,3.6,63.15,-0.946033,1.13644,11.4543
21014423,0.0223706,0.0276969,0.00106526,26.1,2.4,63.6,-0.495769,1.17236,10.9609
21037203,0.0532632,-0.0276969,-0.0415453,25.35,3,63,-0.694556,1.26816,11.2986
21049377,-0.00106526,0.0532632,0.0447411,26.1,2.4,61.95,-1.10171,0.90891,11.2675
21072213,-0.00213053,-0.0383495,-0.0394148,26.4,2.7,62.55,-0.60115,1.14841,11.5094
21085378,0.0447411,0.0106526,-0.0138484,26.25,3.6,62.4,-1.22625,1.19152,11.368
21108203,0.0213053,0.0607201,0.0394148,25.8,1.95,63.6,-1.1544,0.667013,11.2842
21121373,-0.00532632,0.0436758,0.0170442,25.65,0.3,63.9,-0.713716,0.851429,11.2172
21144216,-0.0372843,0.00319579,-0.00319579,27.9,1.65,62.55,-1.02507,0.834664,11.0184
21157374,0.0117179,0.0213053,0,27.15,2.4,63.6,-0.888552,0.95681,11.2172
21170671,-0.0383495,0.015979,0.00532632,26.4,1.65,63.6,-1.00351,0.963995,11.0878
21193241,0,0.0255663,0.00958738,26.25,2.55,62.4,-1.03944,1.1053,11.2938
21206372,-0.0276969,0.00852211,-0.00106526,24.75,1.2,64.65,-0.742456,1.04782,11.0591
21229203,-0.0181095,-0.0170442,0,26.7,4.8,63.15,-1.38911,1.11488,11.4255
21241371,0.00852211,-0.00745685,0.0149137,26.1,2.4,63.6,-0.924478,1.08854,11.119
21264222,-0.0980043,0,0.00745685,25.95,2.1,63.9,-1.0083,1.23703,11.2124
21277373,-0.0276969,0,-0.00852211,26.85,1.95,64.05,-1.02507,0.90412,11.1309
21300203,-0.0639159,0.00745685,-0.00213053,26.25,3.6,63.9,-1.04183,0.753234,10.9489
21312377,0.0372843,0.0245011,0.0149137,27,1.8,63.9,-0.981958,0.949625,11.2004
21335203,-0.00106526,0.00639159,0.00852211,27,0.6,63.15,-1.03944,0.995131,10.9561
21347373,-0.0138484,0.00745685,0.00745685,25.95,1.05,62.1,-0.878972,1.16997,11.3585
21370207,0.0213053,0.0276969,0.0138484,24.9,2.1,63.15,-1.06578,1.08614,11.2339
21383376,-0.0181095,0.0170442,-0.00319579,26.25,2.85,63.45,-0.790356,0.959205,11.0806
21406203,-0.00958738,0.02024,-0.00426106,26.7,3.3,63.15,-0.778381,1.17476,11.313
21418376,0.00532632,0.0266316,0.0138484,25.35,2.7,63,-0.941243,0.92807,11.0806
21441221,-0.015979,0.0181095,0.0127832,25.35,0.45,64.35,-0.996328,0.920885,11.1597
21454371,-0.00426106,0.00319579,0.0106526,25.8,2.4,63,-1.00351,0.95681,11.2219
21467373,-0.00745685,0.00639159,0.00639159,26.1,3.45,62.55,-0.946033,0.920885,11.2555
21490208,-0.02024,-0.00319579,0.00852211,26.25,1.35,62.85,-0.958008,1.02627,11.1453
21503384,-0.0138484,-0.00426106,0,26.4,2.7,63.3,-1.08973,0.87538,11.2555
21526203,-0.0213053,-0.00319579,0.00106526,27,2.55,64.2,-0.871787,0.985551,11.1405
21539374,-0.0351537,0.00745685,0.0181095,24.9,2.55,63.15,-1.04423,1.02866,11.1525
21562221,-0.00213053,-0.0117179,-0.00639159,25.8,2.4,63,-1.06818,0.92328,11.107
21575372,-0.00958738,-0.0170442,-0.00319579,26.7,2.1,64.5,-0.938848,0.992736,11.1645
21598203,-0.00958738,-0.015979,0.00319579,26.1,1.95,62.55,-0.981958,0.992736,11.2124
21610375,-0.0245011,-0.0266316,0.00958738,26.7,1.8,62.85,-1.01788,0.89454,11.1333
21633210,0,-0.0479369,0.00426106,26.4,1.65,62.55,-0.941243,0.954415,11.2076
21646372,-0.0138484,-0.0383495,0.00106526,26.85,1.65,63,-0.883762,0.93286,11.0136
21659374,-0.00106526,-0.0340885,0.0106526,26.85,1.2,63.6,-1.0107,0.89933,11.2363
21682203,0.02024,-0.0340885,0.015979,26.7,2.85,63.45,-1.01788,0.90412,11.0711
21695376,0.0479369,-0.0308927,0.0191748,26.1,3.45,62.55,-0.850232,0.916095,11.21
21718203,0.036219,-0.0447411,0.0245011,26.1,1.65,63,-0.802332,0.92328,11.1501
21731385,0.0415453,-0.0479369,0.0255663,25.95,1.8,62.4,-1.07057,1.02148,11.277
21754204,0.0585895,-0.0383495,0.0245011,27,2.55,62.4,-0.840652,0.983156,11.1621
21766372,0.0447411,-0.0308927,0.0340885,25.65,1.8,62.85,-0.783171,1.07417,11.1717
21789203,0.0436758,-0.0266316,0.0372843,25.95,1.8,62.1,-0.718506,0.9137,11.368
21801382,0.015979,-0.0884169,0.0330232,24.9,2.55,64.5,-0.756826,1.07896,11.0663
21824203,0.0191748,-0.106526,0.0287621,25.8,1.95,62.55,-0.831072,1.08614,11.2411
21836377,-0.00213053,-0.0649811,0.052198,25.05,3,63.3,-0.749641,0.94244,11.2148
21859221,0.0213053,-0.102265,0.0149137,24.9,0.6,63.45,-0.866997,1.11249,11.3489
21872372,0.0127832,-0.0500674,0.0340885,25.35,3,63,-0.816702,1.01429,11.1788
21895203,0.00532632,-0.0415453,0.00958738,25.8,2.4,62.25,-0.63947,1.02387,11.1381
21908372,0.0298274,-0.015979,0.0276969,26.1,1.95,64.35,-0.61073,0.887355,11.1118
21921384,0.0671117,-0.0213053,0.0351537,25.35,2.7,63.3,-0.785566,1.07417,11.1549
21944203,0.0340885,-0.0106526,0.052198,24.9,3.3,63.45,-0.857417,1.06459,11.0591
21956377,0.0383495,-0.0106526,0.0415453,24,2.7,63.3,-0.682581,1.03585,11.3249
21979221,0.0745685,-0.0245011,0.0447411,25.65,2.55,63.15,-0.737666,1.04064,11.2531
21992371,0.076699,-0.0245011,0.0340885,25.35,3,62.25,-0.661025,1.16997,11.2172
22015203,0.0511327,-0.0138484,0.0458064,24.45,2.85,63.15,-0.665815,1.02148,11.028
22027373,0.0873517,-0.0330232,0.0170442,25.05,4.2,62.55,-0.584385,1.23703,11.3082
22050209,0.0649811,-0.00213053,0.0340885,25.05,3.75,65.1,-0.804727,1.1077,11.1022
22063372,0.072438,-0.00532632,0.00852211,24.45,3.6,62.4,-0.479004,1.12207,11.1573
22086203,0.0969391,0.00745685,0.0330232,24.75,3.45,63.3,-1.0083,1.04303,11.2172
22098384,0.0969391,-0.0106526,0.0138484,24.3,3.75,63.6,-0.61552,1.07896,10.9944
22121203,0.132093,-0.0245011,0.0170442,24.9,4.05,62.85,-0.661025,1.15799,11.0447
22133375,0.213053,0.0106526,0.04048,26.1,4.2,63.3,-0.63468,1.06459,11.0687
22156221,0.226901,0.00213053,0.015979,24.75,3.45,63,-0.404758,1.21308,11.119
22169372,0.34195,0.0138484,0.0607201,24.15,4.35,63.45,-0.876577,1.00471,11.4782
22182672,0.223706,0.0234358,0.11931,24.75,4.95,61.95,-0.864602,1.48132,11.4279
22205203,0.241815,0.00958738,0.12144,24.15,4.35,63.45,-0.359253,1.28493,11.1142
22217382,0.390952,0.052198,0.185356,24.9,4.8,62.85,-0.64905,0.877775,11.5165
22240203,0.409062,0.0287621,0.216249,24.75,5.25,63.3,-1.08494,1.36396,11.289
22252375,0.421845,-0.0532632,0.231162,24.45,4.8,63.15,-1.152,1.59628,12.0913
22275242,0.289752,-0.0458064,0.264186,24.45,6.6,63.9,-1.30529,1.60347,10.9681
22288370,0.330232,-0.108657,0.226901,25.65,6.6,63.15,-0.907712,1.76154,12.041
22311203,0.288687,-0.171508,0.189617,26.25,7.35,62.85,-1.4418,1.45976,11.368
22323373,0.383495,-0.174703,0.0681769,24.75,5.25,63.3,-1.38193,1.04064,11.1022
22347210,0.229032,-0.0745685,-0.113983,24.3,7.2,64.35,-1.93757,0.470621,10.9657
22360372,0.206661,-0.0266316,-0.324906,24.3,7.2,63.6,-1.44899,0.116158,11.6243
22383203,0.198139,0.0213053,-0.379234,24.3,7.2,63.3,-0.320933,-0.35566,11.107
22396383,0.036219,0.00319579,-0.371777,24.9,7.35,63.45,0.0550855,-0.362845,11.4662
22409372,-0.0436758,0.00213053,-0.316384,25.35,7.2,64.05,0.313748,-0.3365,12.6302
22432203,-0.192813,0.0234358,-0.239684,24,7.5,65.7,0.457449,-0.482596,10.6424
22444372,-0.265251,0.00958738,-0.165116,23.55,6.45,62.55,0.452659,-0.432301,10.6016
22467209,-0.122505,0.0106526,-0.056459,23.55,7.5,63,0.517324,-0.410746,11.6219
22480373,-0.385626,-0.0234358,0.0351537,24.3,8.25,63.6,1.08734,-0.25028,11.1142
22503203,-0.386691,-0.0255663,0.184291,24.3,6.75,63.6,0.273032,-0.140109,11.2124
22515405,-0.297209,-0.00958738,0.233293,25.35,7.5,63.6,-0.155676,0.36045,11.7776
22538203,-0.540089,0.00958738,0.201335,24.45,6.9,64.95,-0.59636,0.681383,11.8327
22550376,-0.529436,0.0223706,0.15979,24.15,6.6,64.95,-0.773591,0.925675,12.0698
22573250,-0.513457,0.0234358,0.112918,23.1,6.15,64.95,-0.670605,0.872985,10.513
22586371,-0.514523,0.00745685,0.0436758,24.3,6,66.15,-0.670605,0.911305,11.1836
22609203,-0.498544,0.0553937,0.0308927,24.75,5.25,66.45,-0.641865,0.815504,11.4686
22621373,-0.433563,0.0543285,0.0223706,24.15,5.85,66,-0.328118,0.693358,10.9753
22644222,-0.566721,0.015979,0.0106526,24.45,4.35,67.65,-0.483794,0.664618,11.6195
22657372,-0.481499,-0.0138484,0.0149137,24.75,4.2,67.8,-0.979563,0.518522,12.0866
22680203,-0.523045,-0.0532632,-0.0223706,24,4.2,67.5,-0.941243,0.872985,11.5333
22692405,-0.681769,-0.0511327,-0.0607201,24.75,3.75,68.55,-1.00351,0.729283,11.277
22715203,-0.450607,-0.00106526,-0.0276969,24.45,2.1,67.35,-0.819097,0.616718,11.3417
22727372,-0.50387,0.0106526,-0.0117179,22.8,1.8,67.95,-0.404758,0.561632,10.8268
22750206,-0.499609,0.0394148,0.0458064,22.35,0.6,70.5,-0.390388,0.508942,11.4112
22762384,-0.386691,0.136354,0.0639159,22.95,0.15,68.25,-0.787961,0.662223,10.1562
22785203,-0.259925,0.274838,0.0191748,23.4,-0.6,68.7,-1.36277,0.573607,10.2448
22797377,-0.0873517,0.351537,-0.0468716,24.15,-2.1,70.8,-1.15919,1.28253,12.7021
22820221,-0.504935,0.127832,-0.0745685,24.75,-1.65,69.9,-0.328118,0.851429,12.2279
22833372,-0.390952,0.00745685,0.04048,25.2,-1.35,69.75,0.306563,0.801134,10.9058
22846373,-0.319579,-0.0841559,0.123571,24,-2.4,70.65,-0.55804,0.741259,11.2483
22869203,-0.435693,-0.162985,0.0862864,24.9,-1.8,71.55,-0.989143,0.846639,11.4638
22881384,-0.372843,-0.103331,0.106526,25.05,-2.7,69.6,-1.17595,0.611928,10.8627
22904203,-0.186421,-0.0394148,0.0980043,23.55,-4.95,69.3,-1.17595,0.458646,10.0556
22916376,-0.187487,0.0532632,0.072438,23.85,-4.8,69.75,-1.26457,0.520917,12.2111
22939221,-0.361125,0.110787,0.0106526,24.15,-6.6,70.8,-1.68609,0.525707,12.9631
22952372,-0.46339,0.0639159,-0.072438,24.45,-6.6,70.8,-1.26457,0.192799,10.5442
22975203,-0.487891,0.152333,-0.00426106,22.5,-6.75,72,-2.4549,-1.62502,9.71309
22987372,-0.215183,-0.00532632,-0.186421,23.85,-7.35,70.05,0.330513,0.789159,11.2531
23010209,-0.264186,0.103331,-0.0266316,24.3,-8.25,70.35,-1.0562,-0.0107776,10.7094
23023373,-0.160855,-0.0138484,-0.0990696,24.45,-8.85,70.8,-0.728086,0.0514929,10.0029
23046203,-0.0149137,0.0692422,-0.0223706,23.85,-9.6,71.1,-0.479004,0.506547,12.6925
23058382,-0.236489,0.0852212,0.00426106,22.2,-10.05,68.25,-0.510139,0.262255,12.635
23081203,-0.400539,0.0330232,0.0298274,23.1,-8.4,69.75,-0.0718506,-0.120948,10.9944
23093376,-0.2024,0.00958738,0.0873517,23.1,-10.65,69.75,-0.0191602,-0.235909,10.422
23116221,-0.18216,0.00319579,0.126766,22.5,-11.55,69.6,-0.268242,-0.0299377,10.6016
23129371,-0.0553937,0,0.138484,23.85,-11.1,69.45,-0.184417,0.683778,13.3751
23142373,-0.437824,0.00319579,0.126766,23.55,-10.8,69.9,-0.641865,0.314945,11.4591
23165203,-0.381365,0.00852211,0.110787,24.3,-12.75,68.25,-0.613125,0.0467029,10.9585
23177384,-0.282295,0.0458064,0.0958738,22.95,-12,68.85,-0.646655,0.235909,11.4255
23200203,-0.378169,0.0276969,0.0692422,22.95,-13.5,67.8,-0.541274,0.0922083,10.64
23212374,-0.345146,0.0138484,0.0660464,22.8,-13.2,67.65,-0.495769,0.00359253,10.3502
23235245,-0.18216,0.0298274,0.127832,23.1,-14.4,67.65,-0.143701,0.370031,11.4375
23248372,-0.274838,0.0181095,0.193878,22.95,-14.55,68.25,-0.447869,0.607138,11.5285
23271203,-0.461259,0.00106526,0.184291,22.35,-15.15,67.35,-1.17116,0.437091,11.3178
23283372,-0.308927,-0.00213053,0.133158,22.8,-14.7,67.05,-1.41067,0.106578,9.91427
23307210,-0.203465,0.0436758,0.0553937,23.85,-15.9,68.4,-1.59029,0.439486,10.6136
23320373,-0.216249,0.0628506,-0.0255663,22.8,-16.65,67.35,-1.64059,0.544867,10.7453
23343203,-0.241815,0.0692422,-0.0894822,22.35,-16.2,67.35,-1.22386,0.420326,10.5609
23355405,-0.104396,0.0916127,-0.0884169,22.95,-16.8,68.25,-0.66342,0.429906,10.2328
23378203,-0.072438,0.0852212,-0.0468716,23.25,-17.1,66.75,-0.261057,0.772394,10.7885
23390376,-0.247141,0.0138484,0.0255663,22.2,-17.1,66.75,-0.730481,0.916095,11.3896
23413249,-0.00319579,-0.0426106,-0.0191748,23.25,-17.1,65.7,-1.93278,1.41905,8.1204
23426370,0.595483,-0.0671117,-0.175769,23.55,-18.6,66.75,-1.77471,1.52443,9.61489
23439373,0.314253,0.00106526,-0.307861,22.8,-17.7,66.3,-1.42025,-0.188009,13.0613
23462203,0.28123,-0.0607201,-0.315318,22.8,-16.65,66.3,-0.282612,-2.4034,11.7608
23474419,0.178964,-0.00106526,-0.243946,22.8,-16.2,66.6,-0.0574805,-2.18067,9.84242
23497203,0.513457,0.0713727,-0.2024,23.85,-16.2,67.95,0.514929,-0.975971,10.0628
23509377,0.617853,0.0372843,-0.0990696,23.1,-16.2,67.95,0.876577,-0.631088,10.0795
23532212,0.651942,-0.0756338,0.0628506,22.35,-15.45,67.05,0.768801,-1.09572,10.3981
23545378,0.927845,-0.0798948,0.234358,23.1,-13.2,67.05,0.6251,-0.401166,12.5296
23568203,0.0798948,0.0426106,0.208792,21.15,-14.85,68.85,-0.476609,1.31606,15.7533
23580373,0.224771,0.20027,0.20027,21.9,-13.5,68.85,-0.213157,0.104183,11.0782
23603221,0.171508,0.308927,0.243946,22.95,-14.25,70.65,-0.5772,-0.767604,10.41
23616373,0.233293,0.24288,0.236489,23.4,-13.65,68.4,-1.37953,-0.707728,11.5668
23639203,0.316384,0.178964,0.196009,23.4,-13.95,67.95,-2.23695,-0.801134,10.0436
23652407,0.390952,0.126766,0.0777643,24.45,-13.95,69.45,-1.93039,-0.389191,10.6088
23675203,0.520914,0.04048,0.056459,24,-12.3,68.85,-1.6358,-0.446671,10.7645
23688373,0.392017,-0.0884169,0.0426106,24.45,-12.9,69.45,-0.993933,0.808319,13.6553
23701373,0.346211,-0.0735032,0.0458064,24.45,-12.9,69.45,-1.16158,-0.0131726,10.0388
23724216,0.388821,-0.107592,0,22.95,-12.3,70.35,-1.28852,-0.262255,10.8866
23736372,0.468716,-0.126766,0.00426106,22.95,-12,69.6,-1.0083,0.113763,11.4183
23759203,0.389887,-0.132093,0.00958738,22.8,-11.4,70.5,-0.517324,0.453856,11.3154
23771376,0.42504,-0.150202,0.0106526,24,-11.25,69.9,-0.675396,0.240699,11.2315
23794209,0.459129,-0.144876,0.0191748,22.35,-11.4,70.05,-1.17356,0.456251,10.3382
23806373,0.647681,-0.144876,0.0213053,23.4,-9.6,71.55,-0.261057,1.93877,13.8134
23829203,-0.147006,-0.076699,-0.0266316,23.4,-9.9,69.75,-0.376018,0.896935,11.6626
23841382,0.458064,0.0223706,0.036219,24.15,-10.65,71.55,-0.534089,0.753234,12.5488
23864203,-0.00106526,0.00958738,-0.0149137,23.1,-8.4,70.8,-0.608335,0.762814,10.3166
23876376,0.199204,0.0436758,0.0255663,23.25,-9.3,70.95,-0.888552,0.523312,12.3692
23899221,0.0980043,0.04048,-0.00958738,24.45,-8.85,71.85,-0.835862,0.595162,10.4388
23912370,0.13955,0.0607201,-0.0127832,23.55,-8.7,72,-0.699346,0.755629,11.6267
23935203,0.100135,0.0628506,-0.015979,22.5,-7.5,72,-0.718506,0.583187,10.8795
23947373,0.172573,0.0671117,-0.0106526,23.25,-9,70.65,-0.723296,0.674198,11.6147
23970209,0.109722,0.0628506,-0.0117179,23.4,-9.9,71.55,-0.55325,0.722098,11.3106
23982372,0.0830906,0.0735032,0.0234358,23.85,-9.15,70.8,-0.888552,0.820294,11.6123
24005203,0.0639159,0.0798948,-0.0106526,22.95,-7.95,70.65,-0.878972,0.559237,10.5681
24017384,0.116114,0.0639159,0.00532632,24.3,-7.95,72.45,-1.03465,0.635878,11.8279
24040203,0.104396,0.0703075,0.00532632,24.3,-7.95,70.65,-0.548459,1.13883,11.1812
24052374,0,0.0905475,-0.00745685,25.35,-7.95,72,-0.632285,1.05022,11.4423
24075220,0.0617853,0.0607201,-0.0351537,24.3,-8.7,72,-1.11608,0.597557,11.2962
24088373,0.0319579,0.0862864,0.0138484,24.75,-7.2,71.7,-1.09452,0.655038,10.9777
24111203,0.04048,0.092678,0.015979,23.55,-6,72.45,-1.02507,0.849034,10.7597
24123372,0.0798948,0.100135,0.00958738,23.4,-8.1,71.85,-0.783171,1.05261,11.6052
24147223,0.072438,0.105461,0.0138484,24.75,-8.25,72.45,-0.799937,0.916095,11.2579
24160373,0.0500674,0.0788296,0.00106526,23.4,-6.9,71.55,-0.981958,0.717308,11.0878
24173374,0.0490022,0.0458064,-0.00745685,25.2,-6.9,70.8,-0.931663,1.00711,11.2219
24196221,0.0852212,0.0820254,0.0181095,24.9,-6.6,71.85,-1.02028,0.815504,11.3034
24209371,0.0426106,0.0575243,0.00639159,24.3,-7.5,72.75,-0.838257,0.90412,11.1645
24232203,0.0575243,0.04048,-0.0287621,24.9,-6.9,70.8,-0.754431,1.23942,11.4183
24244372,0.0319579,0.0756338,0.0191748,24.3,-7.95,72.45,-0.756826,0.93286,11.1429
24267209,0.0468716,0.0628506,-0.00745685,24.45,-8.85,72.9,-0.946033,1.2011,11.313
24279373,0.0298274,0.1012,-0.0127832,24.3,-7.95,71.7,-0.495769,1.35678,11.2291
24302203,0.015979,0.0958738,-0.0490022,25.05,-6.75,70.95,-0.414338,1.52443,11.2986
24314417,0.0436758,0.145941,0.0117179,25.8,-6,70.95,-0.828677,1.10291,10.9872
24337203,0.02024,0.107592,0.00532632,25.65,-7.35,71.55,-0.469424,0.985551,11.1669
24350376,0.0511327,0.0958738,0.0298274,25.05,-6.45,71.4,-1.23823,0.758024,11.3034
24373248,0.0266316,0.0426106,-0.0149137,24.3,-7.5,72,-1.3005,0.868195,11.1453
24386373,0.0191748,0.0884169,0.00106526,25.35,-7.95,72.45,-0.364043,1.17715,11.3896
24399373,0.0617853,0.052198,-0.0308927,25.35,-6.75,70.65,-0.881367,1.51485,11.1836
24422203,-0.0106526,0.0628506,-0.0170442,25.35,-7.2,72.45,-0.56762,1.35917,11.2842
24434417,0.0958738,0.0458064,-0.0191748,25.05,-6.75,72,-1.29331,0.985551,11.1309
24457203,0.0223706,0.052198,-0.00213053,25.05,-6.75,71.4,-0.977168,0.578397,10.9585
24469374,0.0447411,0.0468716,0.0436758,23.55,-6,71.7,-0.814307,1.01669,11.3082
24492210,0.0245011,-0.0426106,-0.00639159,24.9,-6.9,72.15,-0.929268,1.12207,11.1573
24505378,0.0255663,0.0372843,0.0255663,25.65,-6.6,71.1,-1.1544,1.11967,11.1956
24528203,-0.106526,0.213053,0.0916127,25.8,-7.5,71.4,-5.35047,-3.12909,10.8028
24540373,0.292948,-0.226901,-0.12144,25.95,-6.15,71.55,1.42983,3.4165,11.8734
24563220,-0.0532632,0.14168,0.152333,25.35,-6,72,-1.55676,1.74477,10.9848
24575374,0.0351537,-0.0138484,-0.0426106,25.8,-6.45,73.05,-1.84417,1.21068,11.2148
24598203,-0.0234358,0.0330232,0.00745685,26.4,-6.45,71.7,-0.541274,1.46695,11.2387
24610382,-0.0234358,0.0372843,0.0138484,25.65,-5.85,72.9,-1.52084,0.705333,11.186
24633204,0.00213053,0.0149137,-0.00319579,26.1,-5.7,73.05,-0.809517,1.11249,11.2004
24645372,-0.0191748,0.0319579,0.0127832,25.35,-6,72.75,-1.27415,0.949625,11.0303
24668203,-0.00958738,0.0138484,0,25.95,-6.15,72.6,-1.11608,1.10291,11.1669
24680384,-0.0106526,0.0223706,0.00532632,26.1,-5.7,72.45,-1.1041,1.05501,11.0663
24703203,-0.0234358,0.0255663,0.00106526,24.9,-6.15,72.9,-1.11847,1.13404,11.1429
24715377,-0.0255663,0.0436758,0.0106526,26.85,-5.25,71.4,-1.33163,0.887355,11.0519
24738221,-0.0234358,0.00852211,-0.00426106,25.95,-5.85,72.6,-1.04902,1.03585,11.0782
24751371,0.0138484,0.00639159,0.00426106,24.9,-7.35,72.15,-1.14721,1.06938,11.2627
24774203,0.00745685,0.00213053,0.00106526,25.8,-7.5,70.35,-1.13045,1.06459,11.0016
24786373,-0.0117179,0.00213053,-0.00213053,25.35,-7.2,73.05,-1.08015,1.05501,11.2387
24809209,0.0170442,0.00213053,0.0181095,24.3,-7.5,72.75,-1.14242,1.10051,11.1477
24821372,-0.00106526,-0.00426106,0.00958738,25.95,-6.9,72.9,-0.984353,0.940045,11.0806
24844203,0.00852211,-0.00852211,0.00426106,25.35,-6.75,72.45,-1.01309,0.911305,11.2603
24856384,0.0213053,0.00319579,0.0127832,26.25,-5.1,71.55,-1.14961,1.02148,11.1693
24879203,-0.00426106,-0.00639159,0.00852211,26.1,-7.95,72,-1.13045,1.14602,11.2196
24891375,-0.00745685,-0.0490022,0.0170442,25.65,-6.6,72.6,-1.08734,1.18913,11.3465
24914217,-0.0213053,-0.0127832,0.0138484,25.35,-5.7,72.45,-1.03225,1.15799,11.0711
24927373,-0.0319579,0.00106526,0.00639159,25.2,-6.6,72.6,-1.09213,1.1077,11.21
24940374,-0.0117179,-0.00106526,0.0138484,24.75,-6.75,73.5,-1.07536,1.11009,11.1717
24963203,-0.0223706,-0.0106526,0.00852211,26.25,-6.9,71.85,-1.14961,0.997526,11.1142
24975405,-0.0234358,-0.0330232,0.00745685,25.8,-7.5,72.75,-1.09452,1.09333,11.2483
24998204,-0.00213053,-0.02024,0.00532632,25.8,-8.25,72,-1.0107,0.985551,11.0974
25010374,-0.00852211,-0.0255663,-0.00319579,26.4,-7.95,72.75,-0.977168,1.03106,11.1238
25033254,0.0117179,-0.04048,-0.00319579,26.1,-5.7,72.75,-0.926873,1.04303,11.2363
25046373,0.0127832,-0.0234358,0.0234358,25.95,-7.35,72.6,-1.19032,1.11728,11.0711
25069203,-0.00213053,-0.0255663,0.0138484,26.4,-6,72.45,-1.03465,1.25619,11.1645
25081371,0.0191748,-0.0649811,-0.00319579,26.1,-6.75,72.45,-0.821492,0.920885,11.2387
25104222,0.02024,-0.0266316,0.0330232,25.2,-6.6,71.85,-1.1041,0.992736,11.1621
25117376,0.0340885,-0.0447411,0.015979,26.7,-6.6,73.65,-0.938848,1.09572,11.0423
25140203,0.0191748,-0.0596548,0.00852211,25.2,-7.35,71.85,-0.910107,0.992736,11.2315
25152397,0.0223706,-0.052198,0.0287621,25.2,-7.65,72.6,-0.962798,1.13165,11.21
25175203,-0.00213053,-0.0479369,0.052198,25.05,-6,72,-1.00112,1.0574,11.1477
25187373,0.0181095,-0.0394148,0.0468716,25.05,-4.95,72.75,-1.17835,0.808319,11.1118
25210206,0.0245011,-0.0511327,0.0255663,26.1,-6.75,73.8,-1.08494,0.97118,11.1764
25222379,0.0213053,-0.0479369,0.04048,25.05,-5.25,72.75,-0.732876,1.1053,11.2842
25245203,-0.00426106,-0.0415453,0.052198,24.9,-5.55,72.15,-1.06099,0.999921,11.1956
25257375,-0.0106526,-0.0681769,0.0181095,25.35,-6.45,72.75,-0.790356,1.33043,11.2076
25280220,-0.0255663,-0.0447411,0.0266316,24.75,-7.5,73.5,-0.864602,1.27774,11.2172
25293373,-0.0383495,-0.0330232,0.0170442,24.9,-5.55,71.85,-1.00351,1.18194,11.1693
25306375,-0.0543285,-0.0330232,0.0138484,24.45,-6.15,72.9,-1.04423,0.987946,11.1381
25329203,-0.0213053,-0.0276969,0.00852211,24.75,-7.95,72,-0.843047,0.999921,11.2291
25341376,-0.00532632,-0.02024,0.0138484,24.15,-6.6,71.1,-1.02267,0.985551,11.1381
25364203,0.00319579,-0.0351537,0,24.45,-6.9,72.15,-0.910107,1.08614,11.0998
25376375,0.0138484,-0.0266316,0.02024,24.45,-7.35,72.6,-0.850232,1.10051,11.2866
25399220,0.0511327,-0.0138484,0.0170442,25.35,-6,73.8,-0.936453,1.03824,11.0974
25412374,0.0234358,-0.0170442,0.0191748,25.05,-6.75,71.7,-0.888552,0.987946,11.1118
25435203,0.0735032,-0.0255663,0.02024,25.35,-6.45,73.8,-0.831072,0.849034,11.2315
25447372,0.134223,-0.00213053,0.0458064,23.25,-5.25,71.7,-0.740061,1.08854,10.9992
25470209,0.135289,0.00852211,0.0532632,24.75,-5.7,72,-0.876577,0.868195,10.9801
25483376,0.24288,0.0245011,0.0703075,24.15,-6.6,73.2,-0.519719,0.817899,11.095
25506203,0.262055,0.0809601,0.107592,24,-6,72,-0.459844,0.513732,11.2148
25518380,0.346211,0.120375,0.100135,24.45,-6.15,73.2,-0.752036,1.56754,11.6363
25541203,0.191748,0.153398,0.0873517,25.35,-4.95,72.45,-0.785566,1.45976,10.8914
25553376,0.259925,0.137419,0.0628506,24,-4.95,71.7,-0.802332,1.22026,11.4615
25576220,0.286556,0.157659,0.0990696,24.45,-3.6,72.15,-0.852627,1.26098,11.6004
25589373,0.0319579,0.145941,0.0479369,25.35,-4.2,72.45,-0.665815,1.68011,11.277
25612203,0.218379,0.196009,0.0596548,24.75,-4.2,72.75,-1.14721,1.88129,12.4698
25624373,0.0223706,0.262055,0.0639159,25.2,-4.05,72.6,-0.565225,1.62263,10.6376
25647209,0.0585895,0.291882,0.0745685,25.65,-4.8,72.15,-1.37953,1.24661,11.2866
25659374,0.0191748,0.271642,0.128897,25.8,-4.5,73.5,-0.828677,1.47653,10.9178
25672374,-0.0553937,0.26312,0.186421,25.95,-3.6,72.9,-1.14482,1.47892,11.8135
25695203,0.0468716,0.267381,0.227967,26.25,-3.3,73.2,-2.16031,0.91849,10.9824
25708375,-0.110787,-0.0415453,0.0436758,27,-4.8,73.2,-2.5004,-0.183219,11.2507
25731203,0.0223706,-0.0713727,0.0798948,26.7,-4.05,72.15,-0.974773,-0.640668,11.8327
25743374,-0.015979,-0.0447411,0.100135,26.25,-4.05,71.85,-0.962798,-0.959205,9.59813
25767213,-0.157659,-0.0735032,0.0628506,26.85,-5.25,72,-1.42743,-0.849034,11.6195
25779375,-0.0255663,-0.0276969,0.04048,27.75,-5.55,72.6,-1.30289,-0.635878,11.574
25802203,-0.0692422,0.0127832,0.0106526,26.85,-5.7,72.45,-0.953218,-0.295785,11.2627
25814415,-0.24075,-0.015979,-0.0127832,25.65,-4.05,72.6,-0.874182,-0.262255,11.2507
25837203,-0.214118,-0.0862864,0.0181095,27.6,-5.25,71.4,-0.579595,-0.240699,11.8399
25849375,-0.224771,-0.189617,0.0703075,26.85,-5.7,72.75,-0.249082,-0.243094,11.0495
25872210,-0.257794,-0.289752,-0.142745,25.35,-7.2,70.95,0.141306,3.23687,12.1081
25885376,-0.376038,0.148072,0.276969,26.1,-8.25,71.7,-1.09213,0.0946033,10.925
25908203,-0.168312,-0.24288,-0.0553937,24.3,-7.5,71.7,-1.36277,0.108973,10.9753
25920374,-0.354733,-0.0660464,0.102265,24.3,-8.7,70.95,-0.0694556,0.32213,11.289
25943220,-0.241815,-0.0649811,0.0532632,24.9,-7.65,70.8,-1.54239,0.0371228,11.2052
25956373,-0.219444,-0.0234358,0.0639159,25.05,-8.25,71.4,-0.548459,0.537682,10.4819
25979203,-0.199204,-0.0138484,0.0660464,25.05,-10.05,71.4,-1.16637,0.180824,11.3944
25992397,-0.20027,0.036219,0.115049,24.15,-9.6,70.5,-0.771196,0.204774,11.701
26005378,-0.178964,0.0255663,0.148072,25.2,-9.15,70.8,-1.14242,0.056283,11.0303
26028203,-0.294013,-0.0862864,0.0937433,24.45,-9.9,70.05,-1.36516,-0.147294,11.1956
26040374,-0.198139,-0.116114,0.0585895,24.75,-12.3,70.35,-1.74597,0.25986,12.6733
26063220,-0.291882,-0.150202,-0.0245011,24,-12,69.3,-1.78189,0.343685,10.5513
26075374,-0.255663,-0.107592,-0.0990696,24.3,-12.3,68.85,-1.96631,0.482596,11.4782
26098203,-0.155529,-0.00319579,-0.137419,22.8,-13.65,68.7,-1.83459,0.552052,11.7393
26110377,-0.333428,0.04048,-0.219444,23.25,-12.3,69.3,-1.6358,0.508942,11.0327
26133210,-0.231162,0.052198,-0.241815,24,-15.6,68.25,-1.27176,0.226329,10.9872
26145374,-0.148072,0.0958738,-0.224771,22.95,-13.5,67.5,-0.946033,0.0826282,10.5753
26168203,-0.132093,0.157659,-0.218379,22.8,-15.45,66.6,-1.13763,0.144899,12.1919
26180380,-0.291882,0.142745,-0.223706,22.5,-15.6,66.75,-0.967588,0.295785,11.8758
26203203,-0.450607,0.0415453,-0.196009,23.4,-16.2,65.25,-1.14961,0.240699,11.7345
26215376,-0.315318,0.0213053,-0.14168,22.05,-16.95,64.5,-0.950823,0.384401,11.3321
26238220,-0.409062,0.052198,-0.108657,21.9,-17.55,64.65,-1.57113,0.324525,11.016
26251374,-0.376038,0.0713727,-0.11931,21.15,-17.1,63,-1.38193,0.195194,10.2615
26274203,-0.0905475,0.149137,-0.118244,21.6,-18.45,62.1,-1.54239,-0.168849,9.57897
26286374,0.0756338,0.203465,-0.18003,21.6,-17.4,63.9,-1.37714,0.32692,10.5729
26309209,-0.143811,0.265251,-0.20027,21.45,-18.3,61.2,-1.74836,1.26098,13.799
26321374,-0.416518,0.194943,-0.24288,22.2,-18.3,61.95,-1.07057,1.07177,13.2362
26344203,-0.533697,0.1012,-0.165116,21.3,-18,60.3,-0.268242,0.334105,10.4867
26356381,-0.388821,0.0692422,-0.036219,22.05,-19.2,60.3,-0.0862207,0.544867,10.537
26379203,-0.290817,0.153398,0.0820254,21.45,-19.35,60.15,-0.881367,0.722098,11.4998
26391374,-0.386691,0.168312,0.072438,20.55,-21.45,60,-1.16158,0.690963,10.331
26414247,-0.221575,0.167247,0.072438,21.6,-19.95,59.25,-1.152,0.372426,9.60292
26427374,0.238619,0.236489,0.0862864,22.5,-19.35,59.1,-1.17116,1.43821,12.4985
26440374,-0.626375,0.189617,0.00319579,21,-21.75,57.6,-2.11241,2.116,14.2014
26463203,-0.619984,0.0266316,-0.107592,20.7,-21.15,57.75,-1.64059,0.825084,11.2746
26475407,-0.287621,-0.00106526,-0.0905475,21.3,-22.2,56.85,-1.03225,0.453856,8.74071
26498203,-0.3036,0.0319579,-0.0969391,22.05,-21.75,56.85,-1.06099,0.978366,11.4351
26520203,-0.229032,0.0852212,-0.102265,21.3,-22.2,55.8,-1.56634,0.640668,11.3441
26532394,-0.22051,0.00639159,-0.167247,20.4,-22.35,54.9,-1.1544,0.384401,9.53586
26545378,0.00426106,-0.0127832,-0.120375,20.7,-21.15,55.65,-0.464634,0.609532,11.0711
26568203,-0.125701,0.076699,-0.0660464,22.5,-21.9,55.65,-0.773591,1.08375,13.9379
26580376,-0.439954,0.0383495,-0.0575243,19.35,-22.65,54.6,-1.16637,0.185614,10.5513
26603220,-0.28123,-0.0266316,-0.0745685,20.25,-22.2,52.95,-1.14961,-0.276625,10.1035
26615373,-0.136354,0.0447411,-0.0713727,20.25,-23.25,53.7,-1.22625,0.0347278,11.7345
26638203,-0.271642,0.0617853,-0.1012,20.1,-24.15,52.8,-1.06818,-0.0371228,10.6208
26650380,-0.264186,0.0276969,-0.0852212,20.1,-22.65,52.5,-1.04423,-0.056283,10.5537
26673209,-0.00958738,0,-0.0319579,19.2,-22.95,52.35,-0.934058,0.111368,10.822
26685374,-0.142745,-0.0149137,-0.0149137,19.65,-24.15,52.5,-1.12326,-0.130529,10.2328
26708203,-0.0500674,-0.036219,-0.0181095,19.35,-23.85,52.2,-1.61664,-0.393981,10.9609
26720381,0.0671117,-0.0383495,-0.0287621,19.65,-23.1,52.2,-1.3963,-0.35566,10.3286
26743203,-0.0170442,-0.0298274,-0.0394148,20.25,-21.45,51.3,-1.41785,-0.30776,10.5897
26755374,0.0436758,0.0490022,-0.02024,18.75,-24,50.55,-1.57832,0.329315,12.6518
26778220,-0.108657,0.0745685,-0.02024,18.45,-23.7,51.6,-1.50647,0.295785,10.5968
26790374,-0.122505,0.0692422,-0.0191748,19.35,-24.15,52.2,-1.53281,0.168849,9.47119
26813203,0.196009,0.173638,0.00852211,20.1,-23.1,50.7,-2.04774,1.71843,10.7597
26825372,0.0873517,0.16192,-0.105461,19.65,-23.85,51.15,-2.56507,2.39861,10.9633
26848209,0.113983,0.108657,-0.223706,19.5,-23.7,49.8,-2.15073,2.25012,8.60659
26860376,0.592287,0.158724,-0.183225,19.35,-23.85,50.1,-0.706531,0.188009,9.33228
26883203,0.140615,0.0191748,-0.192813,19.05,-23.1,50.7,-0.716111,-0.892145,14.5031
26895402,0.24075,-0.0809601,-0.0649811,19.65,-22.35,50.4,-0.538879,-1.9699,9.60771
26918203,0.370712,-0.0628506,0.0617853,19.05,-24.6,49.65,-0.574805,-1.53162,9.34186
26930376,0.578439,-0.092678,0.0756338,18.75,-22.95,50.85,-0.632285,-0.717308,11.1932
26953249,0.714792,-0.100135,0.162985,19.05,-21.9,50.7,-1.11129,-0.777184,9.50472
26966373,1.23677,-0.0948085,0.205596,19.2,-23.7,51.6,-2.10043,0.940045,14.0553
26989203,-0.0255663,-0.0447411,0.0841559,18.15,-22.5,51.3,-1.24302,2.32437,13.5739
27001373,0.387756,0.0170442,0.0916127,19.35,-22.35,52.2,-2.52675,0.403561,12.6302
27024216,0.276969,-0.0458064,0.036219,18.45,-22.5,51.6,-1.78668,0.128134,10.355
27037374,0.186421,-0.112918,0.0298274,17.85,-21.6,51.75,-1.54,-0.0874182,10.9058
27060203,0.376038,-0.16192,0.0617853,19.35,-22.35,52.5,-1.3484,-0.26944,10.7453
27072398,0.348341,-0.276969,0.0809601,19.05,-21.6,53.25,-1.54479,-0.370031,9.24366
27095203,0.573112,-0.474043,0.0990696,18.45,-21.45,52.95,-2.45011,-0.518522,8.9874
27107372,0.900148,-0.690291,0.0894822,17.7,-21.75,53.7,-2.05732,0.647853,10.7406
27130204,0.802144,-0.655138,0.0852212,19.2,-19.5,52.65,-1.00112,2.05133,13.0925
27142373,0.285491,-0.392017,0.0596548,17.7,-21.45,52.95,1.00591,2.07289,16.2419
27165203,0.109722,-0.117179,0.0298274,17.55,-19.05,53.85,0.0981958,1.08135,11.3824
27177371,-0.0127832,-0.0617853,-0.0191748,16.8,-20.85,52.8,-0.452659,0.544867,11.1836
27200216,0.249272,0.0340885,0.0319579,17.55,-20.85,53.25,-0.579595,0.858615,11.8183
27213377,0.0213053,0.0575243,0.0138484,16.35,-20.7,55.5,-1.00591,0.714913,11.2363
27226373,0.170442,0.0447411,-0.00639159,17.7,-21.45,53.7,-0.718506,0.94244,11.6267
27249203,0.0287621,0.0713727,0.0255663,16.8,-20.1,53.85,-1.11608,0.738864,10.9633
27261379,0.0607201,0.0394148,0.00958738,17.4,-19.5,54.75,-0.790356,0.793949,11.5285
27284203,0.076699,-0.00852211,0.0117179,17.55,-19.8,54.3,-1.01549,0.501757,10.6639
27296372,0.112918,0.0149137,0.02024,17.55,-19.35,53.25,-0.816702,0.334105,11.1669
27319219,0.1012,0.0298274,0.0308927,17.55,-19.35,54.3,-0.835862,1.08854,11.6746
27332374,0.0830906,0.0372843,0.00958738,18.75,-20.25,53.7,-0.673001,0.985551,11.38
27355203,0.0415453,0.0852212,0.00639159,16.8,-20.1,55.35,-0.744851,0.9137,11.0591
27367374,0.0266316,0.0809601,0.00213053,17.55,-19.35,52.5,-0.852627,1.16278,11.3896
27390209,0.0479369,0.102265,-0.00106526,18.6,-18.6,53.85,-1.25499,0.791554,10.9681
27403376,0.0351537,0.0500674,-0.015979,18.45,-19.2,54,-0.747246,1.14362,11.1621
27426203,0.0628506,0.0852212,0.015979,18.75,-20.7,54.45,-0.768801,0.762814,11.1573
27438382,0.0245011,0.0798948,0.00745685,17.7,-19.95,53.7,-1.10171,0.777184,11.2339
27461203,0.0873517,0.092678,0,18.15,-19.2,54.45,-0.62989,1.35199,11.5117
27473376,0.0415453,0.0777643,-0.00958738,17.55,-19.05,55.65,-0.816702,1.31367,11.016
27496219,0.0415453,0.0543285,0.0287621,17.85,-19.35,54.6,-1.346,0.920885,11.3968
27509374,0.0596548,0.0308927,0.0351537,17.25,-20.1,54.6,-0.881367,0.695753,11.1357
27522373,-0.0234358,0.0415453,0.0298274,17.25,-19.05,55.35,-0.459844,0.940045,11.1836
27545203,0.0862864,0.04048,-0.0276969,16.35,-18.75,53.4,-0.462239,1.31127,11.2531
27557384,0.0127832,0.0383495,-0.0330232,17.4,-19.95,53.4,-0.608335,0.817899,11.1453
27580203,-0.0468716,0.0500674,-0.00852211,17.55,-19.8,55.35,-1.51605,0.310155,10.8076
27592374,-0.0234358,0.0958738,0.0117179,17.1,-19.5,55.5,-1.18553,0.858615,11.0687
27615242,0.0617853,0.0490022,-0.0319579,18.6,-20.85,52.8,-1.12805,0.741259,11.0974
27628374,0.0511327,0.0649811,-0.0149137,17.4,-19.2,54,-0.244292,1.39031,11.2579
27651203,0.0532632,0.0713727,-0.0298274,18.45,-19.2,54,-0.608335,1.54359,11.2435
27663374,-0.0319579,0.132093,0.0649811,19.05,-19.35,54.6,-1.31008,0.700543,10.9154
27687210,0.00745685,0.0245011,-0.0170442,18.75,-18.75,55.5,-0.795147,0.822689,11.3561
27700376,0.0287621,0.0479369,0.0287621,18.45,-19.2,54.75,-1.02986,0.94244,11.1956
27723203,0.0745685,0.0745685,0.0500674,18.6,-18.6,54.6,-1.56395,0.719703,11.1022
27735404,0.0447411,0.0415453,0.0213053,17.4,-18.45,55.05,-1.28613,0.90891,11.1621
27758203,0.512392,-1.50948,-0.803209,17.1,-19.2,54.75,3.52307,7.49521,10.1178
27770376,-0.16192,0.573112,0.290817,18.45,-18.75,54,-0.249082,0.214354,11.1094
27793253,0.30147,0.0916127,0.0149137,19.05,-19.05,54.9,-4.07153,0.508942,11.3441
27806381,0.0884169,0.0127832,0.0138484,19.05,-19.8,54.6,0.126936,2.62853,11.0519
27819370,0.0191748,0.0553937,0.0596548,17.7,-18.75,53.7,-2.13157,1.3448,11.4662
27842203,0.0777643,0.0223706,0.00319579,17.85,-18.6,54.3,-0.955613,1.443,11.1453
27854422,-0.0532632,0.0191748,0.00852211,19.35,-19.05,54.3,-0.969983,1.40947,11.0615
27877203,0.0308927,0.0266316,0.02024,17.4,-18.45,53.4,-1.17835,1.07656,11.4974
27889372,0.0149137,0.0213053,0.00958738,17.85,-19.35,55.35,-1.0107,1.11009,10.9872
27912210,-0.0191748,0.0308927,0.00532632,19.2,-19.5,55.5,-1.14961,1.24421,11.174
27925378,0.0213053,0.0117179,0.00852211,18.15,-18,54.75,-1.37235,1.02387,11.1956
27948203,-0.0117179,-0.00106526,0,18.3,-19.8,54.3,-0.941243,1.12207,11.1549
27960373,-0.00639159,0.0117179,0.0149137,18.75,-18,54.75,-1.13524,1.0598,11.2076
27983219,0.00852211,0.00639159,0.00958738,18.45,-18.75,53.7,-1.12326,1.16039,11.1717
27995374,-0.00532632,0.02024,0.00745685,19.2,-19.5,54.75,-1.03944,1.18913,11.1597
28018203,-0.00213053,0.0223706,0.00745685,16.8,-19.8,54.6,-1.26457,1.19152,11.2148
28030380,-0.0106526,-0.00213053,0.00639159,17.55,-19.05,55.65,-1.16398,1.11488,11.1405
28053210,-0.0266316,-0.00745685,0.0106526,18.75,-18,53.7,-1.29092,1.14602,11.1238
28065375,-0.00532632,-0.00319579,0.00639159,17.55,-18.3,55.35,-0.989143,1.1053,11.0926
28088203,-0.0149137,0.00426106,0.00106526,18.15,-18,54.75,-1.12805,1.02148,11.1669
28100384,-0.0181095,0.00852211,0.0138484,17.85,-18.3,53.55,-1.20469,1.10291,11.2172
28123203,-0.015979,-0.00639159,0,19.35,-20.1,55.35,-1.06818,1.1077,11.1525
28135377,-0.04048,-0.00639159,0.00639159,18.75,-18.75,54,-1.09931,1.13644,11.1166
28158219,-0.0234358,-0.0266316,0.00319579,17.4,-19.2,54.45,-1.19511,1.04303,11.2124
28171373,-0.00106526,-0.0138484,0.0127832,17.1,-18.45,53.4,-1.17595,1.11728,11.0591
28194203,-0.00745685,-0.0340885,0.0138484,18.75,-19.2,55.5,-1.35798,0.940045,10.9561
28206376,-0.0106526,-0.0532632,0.0181095,17.7,-18.45,55.05,-1.17595,1.0119,11.1549
28229209,0.00106526,-0.0394148,0.0276969,18.3,-18.3,54.6,-1.23583,0.999921,11.21
28242375,-0.0340885,-0.052198,0.0245011,17.25,-19.35,54.3,-1.09452,1.09333,11.0711
28255374,-0.04048,-0.056459,0.0308927,18.3,-19.35,54.9,-1.28134,0.736469,11.0974
28278219,0.0255663,-0.0490022,0.0394148,17.55,-19.05,54.3,-1.02746,1.02627,11.1597
28291375,0.02024,-0.056459,0.0394148,18.15,-19.5,54,-0.996328,1.19871,11.083
28314203,0.0298274,-0.0788296,0.0490022,19.05,-19.05,55.65,-1.13763,1.17955,11.3201
28326376,0.0479369,-0.112918,0.0575243,19.65,-20.55,53.85,-0.946033,1.23463,11.1046
28349209,0.0596548,-0.105461,0.0500674,17.4,-19.5,53.4,-1.05141,1.1053,11.2339
28361375,0.0415453,-0.0756338,0.0617853,17.85,-18.6,54.3,-0.924478,1.15081,10.9944
28384203,0.0862864,-0.0671117,0.0607201,18.45,-19.2,54,-0.900527,1.33522,11.3058
28396382,0.0756338,-0.0415453,0.0607201,19.2,-18.45,54.45,-1.22625,0.999921,11.1261
28419203,0.0703075,-0.0287621,0.0511327,16.65,-18,55.05,-0.965193,1.26577,11.2722
28431375,0.0735032,-0.0255663,0.052198,18.15,-18,55.05,-0.948428,1.16997,11.1788
28454249,0.0873517,-0.0213053,0.0319579,18.3,-19.8,54.6,-1.20709,1.05261,11.1549
28467380,0.123571,0.00745685,0.0415453,17.85,-18.6,54.3,-0.58678,1.22026,11.1932
28490203,0.18003,-0.0287621,0.0319579,17.55,-17.85,54.3,-0.816702,1.29211,10.9178
28502375,0.206661,0.0458064,0.0884169,18.75,-19.2,55.05,-0.905317,0.829874,11.1022
28525222,0.297209,0.076699,0.0234358,17.55,-17.1,54.3,-0.768801,1.55078,11.5525
28538374,0.167247,0.16192,0.0468716,16.8,-17.1,54.9,-0.613125,1.25858,11.1836
28561203,0.208792,0.168312,0.0298274,17.85,-17.85,54.6,-0.843047,1.41186,11.7608
28573416,0.18216,0.15979,0.0191748,17.55,-17.85,55.65,-0.819097,1.47653,10.9489
28586671,0.167247,0.133158,0.0330232,19.35,-17.1,54.6,-0.866997,1.32804,11.5141
28609203,0.0479369,0.0777643,0.0394148,18.6,-17.55,55.65,-1.04183,1.57233,11.4327
28621375,0.13955,0.144876,0.107592,19.05,-19.05,54.3,-0.922083,1.79267,12.441
28644216,-0.0575243,0.234358,0.144876,19.5,-16.2,55.05,-0.222737,1.81423,10.5082
28657376,-0.076699,0.309992,0.290817,18.45,-15.15,55.8,0.318538,0.801134,11.9213
28680203,0.0106526,0.418649,0.516653,18.75,-16.95,55.5,-0.318538,0.992736,11.5405
28692393,0.0394148,0.414388,0.596548,19.95,-16.95,55.5,-1.60945,0.432301,10.5154
28715204,-0.18216,0.249272,0.517718,19.2,-16.65,54.45,-2.58902,-0.90891,11.3489
28727373,-0.0884169,-0.00958738,0.316384,19.05,-17.1,54.6,-2.22258,-1.49329,12.2805
28750205,-0.298274,-0.116114,0.129962,21.15,-17.55,54.3,-1.81542,-1.6825,11.3465
28762380,-0.345146,-0.0777643,0.149137,19.2,-16.2,53.4,-0.989143,-1.78309,11.2363
28785203,-0.169377,-0.0553937,0.174703,19.35,-18.3,55.35,-1.13045,-1.56275,10.5226
28797373,-0.230097,-0.105461,0.128897,21.15,-19.8,54.6,-1.18553,-1.14602,11.0663
28820219,-0.241815,-0.113983,0.0916127,20.4,-16.8,52.5,-0.989143,-1.10291,11.8351
28833373,-0.278034,-0.103331,0.0692422,20.25,-17.4,54.75,-1.08494,-0.88017,11.8997
28856203,-0.499609,-0.0905475,0.0191748,19.2,-15.9,52.65,-1.07297,-0.662223,11.8662
28868376,-0.471912,-0.0671117,0.0117179,19.2,-16.65,51.6,-1.17116,-0.35087,11.7417
28891209,-0.46339,-0.0351537,-0.0181095,19.2,-19.2,51.3,-1.31008,-0.101788,10.8244
28903375,-0.446346,-0.00852211,-0.0543285,19.05,-18.3,50.7,-1.32205,0.0969983,10.9417
28926203,-0.390952,-0.02024,-0.110787,19.95,-18.75,51.6,-1.07057,0.300575,11.5525
28938376,-0.385626,0.00745685,-0.0916127,18.6,-18.6,50.4,-1.24541,0.125739,11.1788
28961203,-0.343015,0.0191748,-0.105461,19.05,-19.05,50.1,-1.23823,0.705333,12.2087
28973375,-0.586961,-0.00852211,-0.150202,18.3,-19.05,49.05,-1.17116,0.844244,11.198
28996249,-0.456998,0.0170442,-0.118244,18.3,-18.6,49.05,-1.17835,0.748444,11.4878
29009374,-0.42291,0,-0.113983,17.7,-18.45,48.75,-1.13763,0.901725,10.64
29032203,-0.417584,-0.0372843,-0.102265,19.2,-19.2,47.4,-1.17835,0.887355,10.6855
29044375,-0.247141,-0.0149137,-0.0905475,17.55,-17.85,46.5,-1.61424,0.851429,11.0902
29067209,-0.280165,0.0149137,-0.138484,17.1,-19.2,47.7,-1.55197,1.04782,11.119
29079376,-0.32384,0.0788296,-0.147006,17.25,-20.1,46.95,-1.53521,0.97118,12.5871
29092670,-0.446346,0.0703075,-0.167247,17.1,-19.95,47.1,-1.46096,1.06459,11.5908
29115247,-0.439954,0.0649811,-0.166181,16.5,-20.85,45.9,-1.56634,0.724493,10.501
29128373,-0.324906,0.0777643,-0.207727,17.85,-20.1,46.95,-1.49449,0.599952,10.319
29151203,-0.154463,0.0798948,-0.250337,17.1,-19.95,45.6,-1.48731,0.549657,10.3621
29163374,-0.196009,0.0223706,-0.307861,16.65,-21.45,45.3,-1.29092,0.405956,10.1873
29187210,0.0745685,0.0181095,-0.287621,16.2,-20.85,46.2,-0.696951,0.453856,10.5489
29200375,-0.0436758,0.00213053,-0.239684,15.75,-21.15,43.35,-0.500559,0.717308,11.2459
29223203,0.100135,0.0298274,-0.160855,16.35,-21.45,44.25,-0.265847,0.863405,12.6661
29235398,-0.248207,0.0532632,-0.0990696,15.45,-20.1,44.1,-0.431104,1.07656,12.1919
29258203,-0.295078,0.0607201,-0.0447411,16.65,-20.25,43.65,-0.775986,0.540077,12.4578
29270374,-0.296144,0.052198,-0.00106526,15.75,-20.1,43.35,-0.66342,0.173639,10.7262
29293248,-0.286556,0.0181095,0.0191748,16.5,-20.85,42.75,-0.946033,0.111368,10.7214
29306379,-0.192813,0.0181095,0.0149137,15.75,-20.85,43.05,-1.44899,0.199984,10.9705
29329203,-0.198139,-0.0298274,-0.0234358,15,-20.85,42,-1.31726,0.451461,11.1597
29341374,-0.174703,-0.0511327,-0.00958738,15.9,-20.25,43.65,-1.17356,0.508942,11.9644
29354373,-0.397344,-0.0223706,0.0138484,15.45,-22.35,41.7,-0.946033,0.34129,11.5668
29377203,-0.256729,-0.00958738,0.0479369,14.7,-21.6,39.9,-1.19272,-0.0946033,10.1729
29389373,-0.207727,-0.0319579,0.0468716,15,-20.1,39.9,-1.39151,0.0538879,10.7118
29412231,-0.236489,-0.0575243,0.0234358,15.75,-20.85,38.1,-1.6813,0.135319,11.4926
29425378,-0.2024,-0.0639159,0.0234358,15.3,-22.2,40.8,-1.78908,-0.0323328,11.0303
29448203,-0.241815,-0.036219,-0.00532632,15.3,-22.2,39.75,-2.12917,0.058678,10.9992
29460375,-0.175769,0.0532632,-0.0543285,15.75,-20.85,38.55,-2.19863,0.219144,11.3201
29483220,-0.251402,0.0980043,-0.12144,15.45,-21.9,38.1,-2.13396,0.36045,11.0112
29496374,-0.315318,0.0873517,-0.162985,15.3,-21,37.65,-1.62143,0.379611,10.604
29519203,-0.153398,0.092678,-0.131028,15.45,-21.15,38.1,-1.18553,0.310155,10.4651
29531373,-0.170442,0.133158,-0.0980043,16.35,-21,37.35,-0.986748,0.34129,10.4484
29554210,-0.164051,0.147006,-0.0585895,14.4,-22.65,37.05,-1.1065,0.674198,11.6387
29567372,-0.243946,0.0937433,-0.0468716,15.45,-20.85,36.45,-1.18793,0.743654,10.3909
29590205,-0.149137,0.0735032,-0.0511327,15.75,-23.1,36.45,-1.30768,0.746049,9.88313
29602380,-0.0181095,0.112918,-0.0607201,15.6,-21.75,36.3,-1.78668,1.20829,10.6495
29625203,0.284426,0.0735032,-0.158724,15,-20.85,36.75,-2.08127,2.13995,8.77424
29637377,0.183225,0.0223706,-0.32384,16.35,-20.7,36.3,-1.53042,2.63093,9.74662
29660220,0.527306,0.0500674,-0.360059,15.45,-21.6,37.8,0.292192,0.199984,11.0327
29673374,0.190682,0.0916127,-0.24075,15.75,-21.6,36.75,0.828677,-0.820294,13.969
29686374,0.280165,0.0735032,-0.0340885,15.45,-20.55,36.75,1.87291,-1.21068,10.058
29709203,0.268447,0.0948085,0.234358,12.75,-22.2,34.8,2.12917,-0.635878,11.0926
29721381,0.34408,0.18216,0.459129,15.9,-21,36.6,1.04423,-0.202379,11.3106
29744203,0.399474,0.205596,0.572047,14.85,-21.45,37.35,-0.531694,-0.576002,10.1274
29756376,0.453803,0.0958738,0.590156,14.25,-21.75,36.3,-1.88967,-0.257465,11.962
29779203,0.48363,0.0905475,0.528371,16.35,-22.2,38.4,-3.90628,0.643063,13.2529
29791377,0.132093,0.0596548,0.265251,16.2,-21.9,37.05,-4.48587,0.382006,10.2687
29814203,0.350472,0.0106526,0.0117179,16.2,-21.6,37.05,-4.04998,-0.00598755,11.4183
29826376,0.378169,-0.0884169,-0.036219,16.8,-20.85,38.85,-1.31726,-0.111368,10.6687
29849209,0.340885,-0.169377,0.0543285,15.6,-21.45,37.95,-0.787961,-0.183219,10.7669
29862376,0.449542,-0.218379,0.0841559,15.9,-19.95,38.7,-1.59987,0.0227527,10.6831
29885203,0.519849,-0.292948,0.0894822,17.7,-20.7,38.4,-1.55916,-0.065863,10.3262
29897380,0.588026,-0.322775,0.0788296,16.35,-19.5,37.65,-1.71962,0.877775,13.2098
29920203,0.246076,-0.26312,0,14.85,-21,37.35,-0.958008,1.07896,11.4686
29932376,0.339819,-0.187487,0.015979,15.6,-20.25,39,-0.984353,0.520917,11.0998
29955244,0.42291,-0.204531,-0.0351537,15.6,-20.25,37.95,-1.50647,0.489782,10.8986
29968373,0.435693,-0.186421,-0.0149137,14.85,-19.95,38.4,-0.191602,0.805924,12.2973
29991203,0.282295,-0.16192,0,13.95,-19.8,39.9,-0.845442,0.576002,10.9202
30003373,0.447411,-0.140615,-0.00319579,15.6,-20.25,39,-1.44659,0.781974,10.9848
30027210,0.470847,-0.137419,-0.0213053,15.6,-19.2,39.75,-0.943638,0.578397,11.7225
30039373,0.143811,-0.0639159,-0.00106526,14.7,-20.1,38.85,-0.651445,1.22266,13.0996
30052373,0.383495,-0.0117179,0.0351537,15.75,-20.1,40.2,-0.5772,1.00471,10.7453
30075243,0.0447411,-0.0372843,-0.04048,14.55,-19.95,39.75,-0.816702,1.28253,11.6483
30088374,0.207727,0.0394148,0.0117179,15.6,-20.7,40.5,-1.0586,0.949625,11.7321
30111203,0.0873517,0.0575243,0.00532632,15.75,-19.05,39.9,-0.898132,0.674198,10.6974
30123372,0.0873517,0.0543285,0.00532632,14.25,-20.25,38.7,-0.878972,1.13404,11.871
30147210,0.16192,0.0447411,0.0415453,14.55,-18.45,39.75,-1.19511,0.772394,10.9298
30160376,0.0138484,-0.00426106,0.0287621,15.45,-20.55,40.95,-1.23344,1.0095,11.2962
30183203,0.126766,0.015979,0.0681769,15.75,-19.05,39.6,-1.17116,0.753234,11.3489
30195396,0.00852211,-0.0191748,0.00319579,13.95,-18.6,39.6,-0.881367,1.1532,11.1549
30218203,0.0703075,0.0170442,0.00852211,15.3,-19.5,41.1,-0.570015,1.43821,11.7441
30230376,0,0.0553937,0.0181095,16.2,-19.35,39.6,-0.926873,0.89933,10.913
30253244,0.015979,0.0681769,0.00319579,16.65,-19.5,39,-1.14242,0.94244,11.3944
30266380,-0.0170442,0.0628506,-0.0127832,14.55,-19.5,39.75,-0.778381,1.18434,11.1764
30279373,0.00958738,0.105461,0.00426106,14.7,-19.8,40.65,-1.1041,0.743654,11.4255
30302203,0.0127832,0.0980043,-0.0287621,16.2,-19.35,38.55,-0.538879,1.23703,11.028
30314414,0.00639159,0.0585895,0.0287621,15.75,-19.05,38.55,-1.01309,0.9616,11.1717
30337203,0.0415453,0.0255663,0.0223706,16.5,-19.35,39.15,-0.670605,1.18913,11.4064
30349374,0.0117179,0.0703075,-0.00958738,15.6,-19.95,40.05,-0.673001,1.20589,11.2507
30372215,-0.0287621,0.0905475,0.0117179,14.25,-18,40.5,-1.04423,1.06938,10.9633
30385378,0.00426106,0.0958738,0.00532632,14.4,-18.6,39.9,-1.40827,1.31846,11.1381
30408203,0.0383495,0.0937433,-0.0255663,15.75,-18.6,39.6,-0.984353,0.829874,10.9729
30420374,-0.0127832,0.106526,0.00319579,15.45,-20.55,39.6,-0.728086,0.963995,11.1166
30443220,0.0330232,0.0383495,0.00745685,15.6,-19.2,40.5,-1.41306,0.863405,11.2124
30456374,0.076699,-0.0426106,-0.0340885,15.3,-19.5,39,-0.850232,1.12925,10.9801
30479203,0.0436758,-0.0340885,-0.0117179,15.6,-19.2,39.45,-1.17356,1.14841,11.0687
30491372,-0.0458064,0.0639159,0.0468716,15.6,-18.75,39,-1.66933,0.717308,10.7238
30514204,0.0426106,-0.0298274,-0.0330232,14.7,-19.05,40.2,-0.878972,0.863405,11.1094
30526372,0.112918,-0.0234358,-0.00106526,15,-19.05,39.9,-0.62031,1.24182,11.0327
30549203,0.107592,0.0234358,-0.0234358,15.75,-19.8,38.85,-0.0239502,2.2142,11.483
30561380,0.0181095,0.110787,0.0852212,15,-19.8,40.95,-1.13524,0.9137,10.9705
30584203,0.0735032,0.0351537,0.0468716,16.2,-19.05,40.2,-1.1544,0.671803,11.2028
30596374,0.0596548,0.0394148,0.0351537,15.6,-19.95,40.8,-0.481399,1.13404,11.0735
30619220,0.0532632,0.00426106,-0.0127832,16.2,-20.1,39.9,-0.917293,1.67053,11.1429
30632374,0.04048,0.0671117,0.0383495,15.3,-18.45,40.8,-1.24062,1.26098,11.186
30655203,0.0660464,0.015979,-0.0308927,15.75,-19.35,40.95,-1.28134,1.3448,11.2627
30667372,0.0490022,0.056459,-0.00213053,14.85,-18.75,40.5,-1.50886,1.40468,11.174
30680380,0.0298274,0.0958738,0.0340885,16.2,-19.35,40.2,-1.50886,0.95681,11.0591
30703203,0.0117179,0.0490022,-0.00958738,15.3,-19.2,41.1,-1.23104,1.26098,11.1764
30715376,-0.0127832,0.0788296,0.00319579,15.3,-19.95,40.5,-1.25739,1.22266,11.0926
30738220,-0.0213053,0.0649811,-0.00426106,15.75,-19.8,40.2,-1.18793,1.17955,11.1118
30750373,-0.0149137,0.0255663,-0.0149137,14.85,-18.75,40.5,-1.1065,1.34241,11.1429
30773203,-0.0245011,0.052198,-0.00106526,15.75,-20.85,40.95,-1.34121,1.09093,11.0495
30785373,-0.0436758,0.0138484,0.00639159,15.9,-19.2,40.05,-1.19751,1.21547,11.1261
30808209,-0.0298274,-0.0106526,0,16.2,-17.85,41.7,-1.26218,1.09093,11.2267
30820374,-0.0245011,-0.015979,-0.00213053,14.85,-19.2,39.75,-1.09931,1.13883,11.0735
30843203,-0.0436758,0,0.00213053,15.9,-19.95,40.05,-1.14003,1.24421,11.2028
30855384,-0.00426106,0.0191748,0.0138484,15.75,-19.35,40.65,-1.29571,1.00711,11.21
30878203,-0.0191748,0.015979,0,16.35,-19.2,40.8,-1.15679,1.08614,11.0423
30890374,-0.0287621,0.00213053,0,15.3,-19.5,40.5,-1.1999,1.08135,11.21
30913255,-0.0127832,-0.0117179,0.00426106,16.2,-19.05,39.6,-1.19272,1.21547,11.1573
30926374,-0.0234358,-0.00532632,0.00532632,15.9,-18.75,40.8,-1.11608,1.1077,11.0687
30949203,-0.0308927,-0.0191748,-0.00213053,16.65,-19.95,39.75,-1.14242,1.09572,11.119
30961372,-0.00639159,-0.02024,0.00958738,15,-19.35,39.15,-1.23104,1.07177,11.174
30984213,-0.0117179,-0.0191748,0.00958738,14.4,-19.8,40.65,-1.14721,1.11009,11.1669
30997376,-0.0138484,-0.0138484,0.00213053,15.45,-19.8,41.7,-1.11129,1.07896,11.0615
31020203,-0.00852211,-0.0127832,0.0127832,16.2,-18.6,40.65,-1.09213,1.14841,11.1597
31032410,-0.0127832,-0.0276969,0.00639159,16.2,-19.35,40.2,-1.1544,1.2035,11.1477
31055203,-0.04048,-0.0479369,0.0149137,16.2,-18.6,39.9,-1.26697,1.08375,11.0543
31067374,-0.0181095,-0.0617853,0.00852211,15.75,-20.1,41.7,-1.00351,1.17955,11.301
31090205,0,-0.0223706,0.00426106,15.3,-19.5,41.1,-1.02267,1.06698,11.1094
31102374,0.00319579,-0.02024,0.00319579,16.2,-18.3,38.55,-1.18074,1.14123,11.0902
31125203,0.0127832,-0.04048,0.015979,14.25,-18,39.45,-1.28373,1.05501,11.0615
31137376,0.0468716,-0.0937433,0.0149137,15.3,-19.2,39,-1.12087,1.22505,11.1094
31160220,0.0639159,-0.076699,0.0308927,14.85,-19.2,39,-1.14003,1.04543,11.2172
31172373,0.0415453,-0.0713727,0.0298274,15.45,-19.05,39.6,-0.958008,1.03824,11.1238
31195203,0.0862864,-0.056459,0.036219,15.3,-18.75,39.45,-0.862207,1.19631,11.1453
31207373,0.1012,-0.0287621,0.0287621,16.35,-18.45,39.75,-1.00112,1.08135,10.9992
31230209,0.142745,-0.0308927,0.0447411,15.6,-18.75,40.8,-1.08973,1.19871,11.2291
31242374,0.165116,-0.02024,0.0394148,15,-19.35,39.15,-1.24541,1.14123,11.0184
31265203,0.147006,-0.0756338,0.0127832,15.75,-18.6,40.2,-0.878972,1.13883,11.1525
31277381,0.18216,-0.072438,0.0255663,15.45,-19.05,40.65,-0.778381,1.16757,11.1214
31300203,0.210922,-0.0575243,0.0692422,15,-19.8,40.95,-0.902922,1.12686,11.2651
31312374,0.192813,-0.0639159,0.0617853,15.6,-19.5,40.8,-0.816702,1.77591,11.2459
31335221,0.125701,-0.0170442,0.0681769,13.8,-18.45,40.5,-1.1544,0.920885,11.289
31347374,0.162985,-0.0266316,0.1012,15.9,-19.2,41.1,-0.989143,1.08135,11.2555
31370203,0.156594,-0.0319579,0.111853,15.9,-18,40.5,-1.02507,1.53641,11.4543
31382372,0.14168,-0.0298274,0.092678,15,-19.05,40.95,-1.01549,1.55557,11.3249
31405202,0.0809601,0.0149137,0.0745685,15.3,-17.7,40.5,-0.65384,1.63221,11.198
31417374,0.11931,0.0191748,0.072438,15.9,-17.7,41.1,-0.814307,1.45737,11.119
31440203,0.201335,0.0276969,0.0841559,15.9,-19.2,41.1,-0.807122,1.45976,11.3106
31452450,0.155529,-0.00106526,0.0873517,13.65,-17.55,40.65,-0.804727,1.54599,10.8555
31475203,0.156594,0.0596548,0.111853,15.45,-17.85,40.65,-1.17595,1.72322,11.8255
31487368,0.152333,0.076699,0.107592,14.4,-18.6,40.65,-0.708926,1.57952,11.0806
31510205,0.140615,0.0937433,0.104396,15.3,-18,41.55,-0.821492,1.65616,11.8375
31522374,0.194943,0.155529,0.152333,15.75,-18.3,41.7,-0.953218,1.19631,11.6626
31535671,-0.226901,0.056459,0.0788296,15.75,-17.55,42.3,-1.89686,-0.216749,11.8542
31558204,-0.0511327,-0.123571,0.0340885,16.65,-18,40.8,-0.704136,-0.683778,11.3106
31570359,-0.160855,-0.103331,0.12144,15.3,-18.45,40.8,-0.349673,-0.401166,11.0854
31593203,-0.233293,-0.0468716,0.158724,15.45,-18.3,39.9,-1.18553,-0.24549,11.6028
31605363,-0.106526,-0.0234358,0.18003,14.7,-17.85,40.95,-0.986748,-0.243094,10.6064
31628204,-0.199204,-0.0106526,0.157659,16.35,-17.4,41.1,-1.18553,-0.0874182,11.0495
31640402,-0.126766,-0.00319579,0.118244,14.55,-17.7,40.05,-1.18074,-0.0275427,11.4303
31663203,-0.197074,-0.0170442,0.0585895,17.1,-18.45,40.8,-1.09452,-0.106578,11.107
31675373,-0.256729,-0.0287621,0.0181095,15.45,-17.55,40.2,-1.00112,-0.0514929,11.2698
31698216,-0.148072,-0.00852211,0.0117179,17.25,-17.55,39.6,-0.759221,0.29818,12.1033
31711378,-0.419714,-0.0266316,0.0138484,16.65,-18.75,38.4,-0.500559,0.207169,11.1285
31734203,-0.365386,-0.0351537,0.0500674,15.9,-17.7,37.65,-0.510139,0.281415,11.3321
31746378,-0.311057,-0.0372843,0.0649811,15.75,-17.85,37.8,-0.993933,0.425116,10.9345
31769209,-0.348341,-0.0511327,0.00213053,16.5,-17.55,36.45,-1.09452,0.667013,11.2052
31782379,-0.343015,-0.04048,-0.0319579,14.55,-17.4,37.65,-0.819097,0.784369,11.3728
31805203,-0.313188,-0.0191748,-0.0117179,16.2,-17.85,35.7,-0.687371,0.645458,10.5442
31817384,-0.249272,-0.02024,0.0127832,15.45,-17.1,36.45,-0.775986,0.89454,11.6626
31840203,-0.441019,-0.0798948,-0.103331,15,-16.05,33.9,0.555645,4.329,12.4171
31852377,-0.322775,0.0639159,0.132093,15.3,-15.9,34.5,-1.4921,-0.164059,11.1645
31875241,-0.315318,-0.191748,-0.0106526,15.3,-17.4,34.5,-0.342488,0.803529,10.6855
31888379,-0.358994,-0.0330232,0.0969391,15.6,-17.4,34.2,-1.06578,0.710123,11.9548
31911203,-0.173638,-0.00852211,0.0191748,15.3,-15.9,32.4,-1.52563,0.607138,11.3848
31923377,-0.319579,-0.00426106,-0.0330232,15,-17.1,33,-1.39869,0.578397,10.6927
31947210,-0.297209,-0.00639159,-0.0788296,15.9,-15.9,31.35,-1.66214,0.382006,11.768
31959382,-0.201335,0.0298274,-0.116114,14.55,-16.65,31.05,-1.43222,0.408351,11.1645
31972377,-0.38456,0.00852211,-0.165116,15,-14.55,31.2,-1.46096,0.35566,11.198
31995241,-0.292948,0.0181095,-0.175769,14.4,-15.3,30.9,-0.917293,0.370031,11.8949
32008378,-0.347276,0.036219,-0.131028,14.4,-15.6,29.4,-0.526904,0.290995,10.8172
32031203,-0.394148,0.0447411,-0.0788296,16.35,-14.7,29.25,-0.65384,0.415536,11.289
32043377,-0.360059,0.0809601,-0.0266316,14.25,-15.15,29.55,-0.917293,0.650248,11.5333
32066203,-0.350472,0.107592,-0.0191748,14.55,-14.4,29.55,-1.06099,0.487386,10.4244
32078378,-0.272708,0.152333,-0.00852211,16.2,-14.85,28.8,-1.12805,0.710123,11.301
32101203,-0.314253,0.103331,-0.04048,13.95,-13.05,29.1,-1.32684,0.980761,11.8902
32113414,-0.300405,0.0639159,-0.04048,14.25,-12.9,28.2,-0.862207,0.640668,10.6352
32136203,-0.266316,0.072438,-0.04048,14.25,-12.45,27.45,-0.919688,0.8658,10.9968
32148378,-0.22051,0.0575243,-0.0543285,13.95,-13.5,28.35,-1.1041,0.88017,10.9537
32171208,-0.302535,0.0937433,-0.0575243,13.95,-14.25,27.75,-0.584385,1.62502,12.7356
32183382,-0.292948,0.111853,-0.0170442,15.3,-13.2,26.85,-0.744851,0.772394,9.99331
32206203,-0.206661,0.111853,-0.015979,14.55,-12.45,27.15,-0.60115,0.997526,10.6687
32218378,-0.174703,0.166181,-0.0319579,14.85,-11.1,26.1,-1.06578,1.10051,11.5644
32241216,-0.143811,0.164051,-0.108657,13.95,-11.55,27.3,-1.28613,0.892145,10.2759
32254378,-0.0436758,0.148072,-0.213053,14.25,-11.85,25.35,-1.04902,0.832269,9.63645
32277203,0.258859,0.216249,-0.238619,13.95,-11.55,26.7,-1.02267,0.882565,10.137
32289378,0.0298274,0.262055,-0.313188,14.85,-11.85,27.45,-1.33403,1.72322,13.332
32312209,-0.0628506,0.237554,-0.373908,13.95,-11.55,25.95,-1.38432,1.03106,11.095
32324379,-0.00426106,0.154463,-0.431432,13.95,-10.8,26.25,-1.28852,0.650248,9.89032
32347203,0.0756338,0.18216,-0.42504,13.5,-11.85,26.1,-1.13763,0.810714,10.8531
32359384,0.26312,0.14168,-0.386691,12.75,-11.1,27.15,-0.684976,0.88496,10.7621
32382203,0.156594,-0.0447411,-0.312122,13.05,-9.9,27.15,-0.191602,0.434696,10.2065
32394377,0.264186,-0.116114,-0.160855,13.35,-9.75,25.95,0.191602,0.310155,11.016
32417216,0.258859,-0.0351537,0.015979,13.05,-11.4,26.4,-0.409548,1.15081,13.4445
32430379,-0.145941,-0.0383495,0.0607201,13.05,-11.4,26.1,-0.728086,0.678988,11.5884
32443376,-0.0575243,0.00532632,0.154463,12.6,-10.05,24.6,-0.392783,0.463436,10.5729
32466203,0.0798948,0.131028,0.272708,12.75,-9.9,25.35,-1.28852,1.2993,10.1442
32488209,0.115049,0.0958738,0.194943,12.9,-9,24.15,-2.25371,1.83099,10.5226
32501382,0.267381,0.126766,0.0905475,13.8,-10.65,25.35,-1.60945,2.78182,9.52388
32514377,0.372843,0.102265,0.00532632,14.25,-10.65,26.85,-2.2106,2.48962,9.36821
32537203,0.561394,0.00319579,0.0276969,13.65,-10.05,25.65,-1.25499,1.19392,14.8169
32549377,-0.187487,-0.0948085,0.0298274,14.4,-9,26.25,-1.02986,0.130529,10.6064
32572203,0.316384,-0.156594,0.0862864,13.8,-9.15,26.85,-1.44659,-0.221539,10.2041
32584378,0.238619,-0.250337,0.0287621,12.9,-8.25,27,-1.82261,0.0299377,10.8364
32607220,0.3036,-0.288687,0.0106526,11.7,-9.6,24.3,-1.20709,0.235909,10.7286
32620379,0.418649,-0.298274,0.0468716,12.15,-10.8,26.25,-0.787961,0.413141,11.1884
32643203,0.374973,-0.295078,0.052198,14.85,-9.9,25.8,-0.787961,0.801134,11.4902
32655398,0.52411,-0.24288,0.0500674,12.15,-7.95,25.65,-1.21906,1.2011,12.3979
32678203,0.189617,-0.165116,-0.00319579,13.05,-9.6,26.85,-1.01788,1.13644,11.6554
32690377,0.296144,-0.147006,-0.00745685,12.6,-8.7,25.2,-0.61552,0.638273,11.1693
32713243,0.229032,-0.100135,0.0330232,14.25,-8.85,25.05,-0.732876,0.530497,11.6123
32726382,0.188552,-0.134223,0.00745685,12.6,-7.95,24.15,-1.13284,0.690963,10.5513
32739373,0.366451,-0.140615,0.00106526,13.05,-9.6,26.85,-0.929268,1.25858,12.0387
32762203,0.092678,-0.0820254,-0.0117179,12.6,-9,24.9,-0.445474,1.07417,10.9537
32774416,0.294013,-0.0340885,-0.015979,14.25,-9.15,26.4,-0.668211,0.997526,11.7249
32797203,0.160855,0.00852211,-0.036219,12.75,-10.65,26.4,-0.167651,0.90891,11.6483
32810376,0.0937433,0.0937433,-0.0255663,13.65,-9.3,25.2,-0.711321,1.01669,11.5501
32833244,0.153398,0.173638,-0.00958738,12.45,-8.85,25.35,-0.502954,1.2969,11.9021
32846385,0.217314,0.209857,-0.0138484,12.9,-9.3,26.7,-0.852627,0.549657,10.6855
32869203,0.0468716,0.170442,-0.0394148,12.75,-9.6,26.1,-0.986748,0.88496,11.3345
32881378,0.225836,0.192813,-0.00426106,12.6,-9.75,26.25,-1.12087,1.45018,11.6986
32904222,0.0458064,0.135289,0,11.85,-9.3,25.95,-0.914898,1.37354,11.1477
32917379,0.0415453,0.125701,0.0127832,13.05,-9.9,26.4,-1.1544,0.89933,11.5237
32940203,0.0585895,0.103331,-0.0138484,13.95,-10.05,24.9,-0.732876,1.26577,10.8555
32952415,0.0415453,0.107592,-0.02024,14.55,-8.4,25.05,-0.984353,1.13644,11.313
32975204,0.00106526,0.132093,-0.00213053,12.9,-9.3,25.95,-1.12566,0.892145,10.8747
32987374,0.0266316,0.092678,-0.0181095,13.05,-8.4,26.1,-0.807122,1.37354,11.2531
33010203,0.0447411,0.124636,0.0191748,13.5,-8.85,25.35,-1.29092,0.987946,11.1405
33022381,0.0607201,0.0841559,-0.0127832,12.6,-9.75,25.65,-1.50886,1.05022,11.1669
33045203,0.0394148,0.0841559,-0.00639159,14.85,-9.15,25.35,-1.03465,1.17955,11.3154
33057374,0,0.0841559,-0.00745685,12.6,-8.25,25.65,-1.22146,1.22026,11.1717
33080216,0.0170442,0.0458064,-0.0351537,14.55,-9.6,26.4,-0.725691,1.40707,11.3249
33093379,0.00852211,0.0617853,-0.0298274,13.5,-9.9,26.4,-0.902922,1.20589,10.9944
33106374,0.0426106,0.0745685,-0.0308927,13.35,-9,26.7,-0.914898,1.16278,11.301
33129203,0.0745685,0.056459,-0.0149137,13.05,-8.4,26.1,-1.07297,1.44779,11.2219
33141379,0.015979,0.0596548,0.00213053,13.05,-8.85,27.15,-1.46815,1.02387,11.0447
33164203,0.02024,0.0383495,0.015979,13.65,-9.75,25.2,-1.04902,1.21547,11.2004
33176374,0.0181095,0.036219,0.015979,13.5,-8.85,27.15,-1.68849,0.791554,11.0232
33199216,0.00532632,0.04048,0.0127832,13.5,-8.4,26.1,-0.912502,1.23703,11.1046
33212379,0.0319579,0.0639159,0.0255663,12.15,-9.3,26.7,-1.99505,1.26577,11.2315
33235203,0.0138484,0.0181095,-0.0138484,13.5,-9.6,25.8,-0.541274,1.64897,11.3297
33247377,-0.0394148,0.0298274,0.0191748,13.8,-9.15,26.85,-1.60466,1.00232,10.9705
33270209,0.00319579,-0.0266316,-0.0308927,13.65,-10.05,26.7,-0.59636,1.6849,11.4854
33282382,-0.0298274,0.0255663,0.0181095,13.95,-10.05,24.9,-1.4442,1.06459,10.9513
33305203,-0.0149137,-0.00958738,-0.0149137,13.5,-9.15,25.8,-1.11608,1.16757,11.2004
33317382,-0.00319579,0.015979,0.0106526,13.65,-9,25.95,-1.11608,1.18194,11.1645
33340203,-0.0117179,0.015979,0.00319579,12.9,-9.3,25.65,-1.24062,1.16039,11.0184
33352378,-0.00106526,0.0191748,0.00426106,13.95,-10.05,27.3,-1.18314,1.1556,11.2339
33375246,-0.00319579,0.00426106,0.00958738,12.6,-10.5,25.2,-1.17835,1.11488,11.1022
33388378,-0.0223706,-0.0181095,0.0245011,12.45,-9.15,25.35,-1.22146,0.91849,11.1573
33411203,-0.00106526,-0.0287621,0.00639159,12.9,-9.3,26.7,-1.18074,1.11488,11.1764
33423378,-0.0383495,0.00106526,0,13.35,-9.75,25.2,-1.17356,1.1077,11.083
33447210,-0.0266316,-0.00639159,0.0106526,13.8,-10.65,25.8,-1.23104,1.1556,11.2148
33460379,-0.0245011,-0.015979,0,13.35,-10.05,25.65,-1.19751,1.11488,11.1405
33473377,-0.0213053,-0.00852211,0.0117179,14.4,-9.3,25.65,-1.18314,1.06698,11.1764
33496216,-0.0106526,-0.00745685,-0.00319579,12.75,-8.85,26.85,-1.18314,1.22505,11.1836
33508379,-0.0276969,-0.0127832,0.00745685,13.8,-9.6,26.4,-1.12087,1.06219,11.1405
33531203,-0.0287621,-0.0266316,-0.00532632,14.25,-8.4,26.4,-1.11129,1.04782,11.1788
33543377,-0.0351537,-0.0245011,0.00852211,12.45,-9.15,26.1,-1.09452,1.04064,11.0902
33567210,-0.0383495,-0.0308927,-0.00319579,12.45,-9.9,25.05,-1.06818,1.17715,11.0687
33579382,-0.0319579,-0.0308927,0.00319579,13.05,-9.9,26.1,-1.07297,1.21308,11.1405
33602203,-0.0181095,-0.0340885,0.00319579,13.5,-8.4,25.8,-1.14482,0.978366,11.0088
33614415,-0.0298274,-0.0447411,0.0106526,13.65,-9.3,25.65,-1.14721,1.12686,11.1908
33637203,-0.00106526,-0.052198,0.0127832,13.95,-10.8,26.25,-1.20948,1.02148,11.2028
33649378,-0.0106526,-0.0553937,0.0245011,13.05,-8.85,25.35,-1.13284,1.02627,11.1836
33672204,0.00213053,-0.0511327,0.0245011,13.65,-10.05,25.65,-1.04423,1.11009,11.0735
33684377,-0.00319579,-0.0639159,0.0181095,13.05,-9.15,25.8,-1.2981,1.0574,11.2052
33707203,0.0138484,-0.052198,0.0287621,13.5,-9.6,27.9,-1.07057,1.14362,11.2435
33719378,0.00745685,-0.0628506,0.0255663,12.45,-9.6,25.35,-1.07057,1.06219,10.9824
33742216,0.0127832,-0.0628506,0.0287621,12.75,-9.6,26.1,-1.03465,1.08375,11.2986
33754378,0.0191748,-0.052198,0.036219,13.35,-9.75,26.7,-0.898132,1.12207,11.1525
33777203,-0.02024,-0.0585895,0.0287621,11.7,-7.65,26.4,-0.953218,0.990341,11.1525
33789378,0.0372843,-0.0415453,0.0255663,13.05,-9.15,24.75,-1.02267,1.13404,11.3872
33812209,0.00532632,-0.0426106,0.0213053,12.45,-9.6,25.35,-0.912502,1.16039,11.0399
33824379,-0.0245011,-0.0372843,0.0372843,13.65,-9,25.95,-1.14003,1.08135,11.2028
33847203,0.0436758,-0.0319579,0.0490022,11.4,-9.9,24.75,-0.996328,1.04782,11.1884
33859384,0.04048,-0.0340885,0.0319579,13.65,-8.25,26.7,-1.03944,1.04303,11.004
33882203,0.0617853,-0.0372843,0.0340885,12.9,-8.7,25.95,-0.883762,1.14841,11.2794
33894377,0.109722,-0.0170442,0.0490022,13.95,-9.75,25.2,-0.907712,1.01908,11.1022
33917216,0.185356,-0.00639159,0.110787,12,-8.4,25.35,-0.998723,0.688568,10.4963
33930379,0.168312,0.00532632,0.0809601,11.55,-9.3,27,-0.735271,1.69687,12.532
33943675,0.18003,0.0319579,0.0585895,12.6,-9.3,27,-0.977168,1.22026,10.8316
33966203,0.0234358,0.015979,0.0394148,12.45,-9.9,26.1,-0.65863,1.41665,11.7776
33979382,0.144876,0.0351537,0.056459,12.9,-9.75,25.95,-0.893342,1.04064,11.1525
34002203,-0.0287621,0.00958738,0.0255663,13.8,-9.9,25.35,-0.981958,1.18913,10.8531
34014378,0.192813,0.0394148,0.0649811,12.45,-9.15,27.45,-0.874182,1.16997,12.7811
34037216,-0.122505,0.0479369,0.0415453,14.4,-10.5,26.25,-0.6251,1.66095,10.3023
34050378,-0.0170442,0.0394148,0.0617853,12.75,-8.85,25.05,-1.3963,0.849034,11.8039
34073203,0.00532632,0.106526,0.0777643,13.05,-8.85,25.8,-0.320933,1.16997,10.6519
34085378,0.0127832,0.132093,0.103331,12.75,-9.15,27.15,-0.931663,0.925675,11.0088
34108209,0.0245011,0.125701,0.18216,11.85,-8.7,25.95,-1.13524,0.803529,12.0937
34121379,0.0245011,0.0170442,0.199204,12,-8.85,27.15,-1.32205,-0.104183,10.9609
34144203,-0.223706,-0.116114,0.103331,13.65,-7.95,27.3,-1.47773,-1.02627,12.0363
34156384,-0.238619,-0.14168,0.106526,13.35,-8.7,27.3,-0.541274,-1.75435,11.5261
34179203,-0.32384,-0.136354,0.135289,13.05,-7.35,25.35,-0.855022,-1.77351,11.3273
34191377,-0.354733,-0.123571,0.145941,12.15,-8.7,26.7,-0.797542,-1.47174,10.9848
34214250,-0.219444,-0.0756338,0.162985,12.6,-9.3,27,-1.02986,-1.13165,10.8627
34227379,-0.205596,-0.0553937,0.107592,13.8,-9.9,25.8,-1.16637,-0.640668,11.1717
34240376,-0.245011,-0.00852211,0.0713727,13.5,-8.4,25.8,-0.979563,-0.480201,11.9117
34263203,-0.428236,-0.0234358,0.0873517,13.5,-8.1,25.05,-0.723296,0.0131726,13.1308
34275417,-0.401605,-0.0585895,0.12144,11.85,-8.25,25.65,-0.354463,-0.324525,10.6064
34298203,-0.431432,-0.0607201,0.177899,13.5,-8.85,26.1,-0.637075,-0.159269,11.2627
34310378,-0.410127,-0.0543285,0.170442,12.75,-8.4,25.05,-0.991538,-0.137714,11.3968
34333244,-0.406931,-0.0383495,0.157659,12,-8.85,24.75,-0.888552,-0.216749,10.422
34346379,-0.354733,0,0.136354,13.5,-7.65,25.35,-0.986748,0.00359253,11.5333
34369203,-0.347276,0.0372843,0.109722,13.5,-6.6,24.3,-1.13763,0.202379,12.7596
34381378,-0.616788,-0.0671117,0.0426106,11.55,-8.25,24.15,-0.936453,0.0826282,11.1693
34404216,-0.465521,-0.0852212,0.036219,12.9,-8.25,25.65,-0.895737,0.061073,11.2148
34417378,-0.464455,-0.0234358,0.015979,10.65,-6.6,25.05,-1.0107,0.305365,11.4303
34440203,-0.416518,-0.0191748,-0.0127832,12.6,-7.95,24.6,-1.08734,0.425116,10.2783
34452415,-0.287621,-0.0436758,-0.036219,12.15,-8.7,24.9,-1.0586,0.97118,10.252
34475204,-0.0671117,0.00745685,-0.0458064,11.85,-8.25,24.6,-1.02507,1.22266,11.3657
34487374,-0.290817,0.0905475,-0.0735032,10.2,-7.35,24.3,-1.01788,0.87538,12.3237
34510206,-0.345146,0.0671117,-0.125701,11.85,-6,23.55,-0.938848,0.393981,11.0543
34522376,-0.109722,0.0809601,-0.127832,11.55,-7.95,24.15,-0.986748,0.401166,10.5825
34545203,-0.151268,0.076699,-0.173638,10.95,-7.35,24.3,-1.18314,0.793949,12.1608
34557374,-0.324906,-0.00958738,-0.236489,11.4,-5.85,22.65,-0.771196,0.535287,10.537
34580216,-0.0990696,-0.0639159,-0.191748,11.1,-6.45,23.85,-0.500559,0.0874182,9.31791
34593379,0.309992,-0.04048,-0.125701,11.55,-6,24.15,0.0502954,0.753234,10.4963
34616203,-0.144876,0.0170442,-0.0905475,10.95,-5.1,24,-0.543669,1.22266,13.6649
34628377,-0.218379,-0.0532632,-0.0330232,11.1,-6.45,23.85,-0.409548,0.805924,12.9679
34641379,-0.328101,-0.124636,0.0191748,9.9,-6.6,25.05,-0.105381,0.338895,10.0053
34664203,-0.316384,-0.0958738,0.0639159,10.65,-5.55,22.65,-0.395178,0.386796,11.1094
34676376,-0.166181,-0.0330232,0.0948085,11.55,-7.2,23.55,-0.878972,0.470621,10.3526
34699216,-0.14168,-0.072438,0.0575243,10.65,-5.85,25.05,-0.871787,0.640668,8.81495
34712378,0.413323,0.00106526,0.0681769,10.8,-5.25,23.1,-0.502954,1.25379,11.974
34735203,-0.317449,0.158724,0.0298274,11.7,-5.1,23.25,-1.04902,2.17588,14.733
34747378,-0.531567,0.13955,-0.0415453,10.8,-5.7,22.5,-1.36516,0.935255,10.4795
34770209,-0.0735032,0.135289,-0.0617853,10.2,-5.1,23.7,-0.692161,1.20589,8.88681
34783379,-0.0628506,0.12144,-0.0415453,9.9,-5.55,23.25,-0.814307,1.46934,10.992
34806203,-0.0852212,0.0596548,-0.00745685,10.65,-6.9,24,-0.565225,1.22026,11.21
34818384,0.0149137,0.0660464,0.0585895,10.5,-4.95,23.85,-0.699346,1.28493,9.76578
34841203,0.118244,0.0607201,0.0458064,9.9,-5.55,24.3,-1.22146,1.35678,9.93103
34853377,0.218379,0.0458064,0.00532632,10.5,-4.2,23.55,-1.47533,1.97948,10.6256
34876216,0.26099,0.0127832,-0.0809601,10.65,-5.55,23.25,-1.73399,1.69208,10.5873
34889379,0.318514,-0.0447411,-0.198139,9.15,-6.15,22.95,-1.35798,1.33522,10.1011
34912203,0.493217,-0.0479369,-0.2024,10.95,-5.55,24,-0.00239502,0.343685,11.277
34924377,0.266316,-0.0447411,-0.167247,9.9,-4.8,23.25,0.222737,-0.559237,11.1022
34947209,0.42504,-0.0298274,-0.0543285,10.5,-6,23.55,0.107776,0.00359253,12.4099
34959382,0.34408,-0.00213053,0.015979,10.5,-5.7,21.75,0.213157,-0.0922083,10.1562
34982203,0.476173,0.103331,0.0745685,10.65,-5.55,23.25,-0.225132,0.207169,12.0794
34994413,0.237554,0.151268,0.0234358,11.1,-5.25,22.05,-0.387993,0.705333,12.544
35017203,0.28123,0.30147,0.072438,11.55,-4.5,23.55,-1.08973,-0.0514929,10.6639
35030378,0.412257,0.135289,0.0223706,10.5,-4.2,21.75,-0.876577,0.726888,12.5344
35043377,-0.0255663,0.0639159,0.0692422,10.05,-4.2,23.85,-1.14242,0.614323,11.6363
35067210,0.278034,0.0170442,0.052198,10.95,-5.1,25.05,-1.76513,0.530497,11.2315
35080379,0.1012,-0.0426106,0.00639159,9,-4.95,22.05,-1.68849,0.444276,10.5298
35103203,0.334493,-0.127832,0,10.8,-4.5,22.8,-1.33882,0.27902,10.9178
35115406,0.20027,-0.18216,0.0181095,10.95,-5.1,23.25,-1.33882,0.35566,10.4316
35138203,0.415453,-0.229032,0.0149137,9.9,-4.8,22.65,-1.16398,0.597557,11.3225
35150377,0.340885,-0.203465,0.0117179,11.55,-3.75,22.05,-0.529299,0.686173,10.707
35173241,0.28336,-0.0916127,0.015979,10.65,-5.1,23.25,-0.234712,0.746049,12.7045
35186382,0.170442,-0.0245011,0.0149137,10.2,-4.8,23.25,-0.00718506,0.722098,11.3537
35209203,0.100135,0.0191748,-0.0276969,10.5,-4.5,22.8,-0.462239,0.791554,11.6531
35221377,0.138484,0.102265,-0.0127832,9.75,-4.5,23.1,-0.546064,0.853824,11.4088
35244222,0.02024,0.1012,-0.0181095,9.75,-4.95,22.5,-1.00591,0.00119751,10.3861
35257382,0.284426,0.122505,-0.0138484,9.9,-5.1,21.9,-0.797542,0.949625,12.338
35270374,0.0841559,0.122505,0.0223706,10.2,-5.1,22.65,-0.948428,1.0574,10.8699
35293241,0.0841559,0.0820254,0.00958738,11.7,-3.3,22.35,-0.500559,1.28253,12.0195
35306378,-0.0181095,0.092678,0.00532632,11.1,-3.75,21.75,-0.708926,1.06219,11.1573
35329203,-0.0191748,0.0873517,-0.0181095,10.05,-4.95,23.85,-1.03225,0.940045,11.4926
35341377,0.106526,0.117179,0,11.1,-4.95,22.05,-0.783171,1.07656,11.1908
