timestamp,gyro_x,gyro_y,gyro_z,mag_x,mag_y,mag_z,accel_x,accel_y,accel_z
13699377,-0.00213053,0.0106526,0.0106526,22.5,-16.8,67.8,-1.06818,0.335303,11.2124
13712382,-0.0117179,0.0117179,0.00852211,21.15,-16.35,68.55,-0.998723,0.258662,11.2243
13735203,-0.00532632,0.0117179,0.00852211,21.9,-17.1,68.55,-0.977168,0.335303,11.21
13747378,-0.00852211,0.00745685,0.00852211,22.2,-16.05,69.3,-0.965193,0.265847,11.1764
13770209,-0.00852211,0.00958738,0.0106526,21.9,-16.8,68.25,-0.919688,0.332908,11.2363
13782379,-0.00532632,0.015979,0.00426106,23.85,-16.65,68.7,-1.04183,0.299377,11.2028
13805203,-0.0117179,0.00852211,0.00958738,22.95,-15.6,68.55,-0.960403,0.258662,11.1645
13817382,-0.00532632,0.00745685,0.00745685,22.8,-17.4,68.4,-0.996328,0.335303,11.1812
13840203,-0.00319579,0.00958738,0.0127832,22.05,-16.65,69,-1.04423,0.294587,11.1788
13852379,-0.00852211,0.00745685,0.00852211,22.2,-17.55,69.3,-0.989143,0.275427,11.2148
13875255,-0.00426106,0.0106526,0.00532632,22.35,-16.95,68.7,-0.979563,0.304167,11.186
13888382,-0.0138484,0.0106526,0.00745685,23.4,-16.65,70.05,-1.03465,0.318538,11.2243
13901382,-0.00745685,0.00958738,0.0106526,22.95,-15.6,67.8,-1.00112,0.294587,11.2076
13924203,-0.0117179,0.00958738,0.00532632,23.55,-16.35,68.55,-0.998723,0.316143,11.1669
13936403,-0.00639159,0.00639159,0.00426106,22.95,-16.35,68.25,-1.02507,0.263452,11.2435
13959203,-0.00852211,0.00958738,0.00532632,22.05,-15.9,67.95,-1.01309,0.304167,11.1693
13971382,-0.00852211,0.0117179,0.00639159,22.95,-15.6,68.85,-0.958008,0.337698,11.2722
13994252,-0.00319579,0.0127832,0.00106526,22.05,-16.65,70.05,-1.0107,0.292192,11.1525
14007379,-0.0149137,0.00639159,0.00852211,22.35,-17.4,67.95,-1.00112,0.232317,11.2267
14030203,0,0.00852211,0.00852211,23.1,-16.2,68.7,-0.993933,0.311353,11.2243
14042379,-0.00639159,0.0127832,0.00426106,22.2,-16.35,68.55,-1.00351,0.332908,11.21
14065217,-0.00213053,0.015979,0.00958738,21.9,-17.55,68.85,-1.01788,0.246687,11.2363
14078378,-0.00639159,0.0106526,0.00745685,21.3,-16.2,67.65,-1.00112,0.318538,11.1836
14101203,-0.0149137,0.00852211,0.00532632,22.5,-15.6,68.55,-1.03225,0.261057,11.2579
14113409,-0.00639159,0.00958738,0.00958738,23.25,-17.1,69.3,-1.00112,0.308958,11.186
14136203,-0.00852211,0.00958738,0.00745685,23.25,-17.55,68.55,-1.0083,0.337698,11.1693
14148371,-0.00639159,0.0170442,0.00426106,23.1,-15.45,69.45,-0.936453,0.306563,11.2148
14171203,-0.015979,0.0149137,0.00745685,21.9,-16.35,68.25,-0.998723,0.301772,11.21
14184375,-0.00106526,0.0127832,0.00745685,22.5,-17.1,69.3,-0.981958,0.265847,11.2675
14197379,-0.00319579,0.00852211,0.00532632,22.35,-16.95,68.7,-0.984353,0.356858,11.1812
14220203,-0.00639159,0.00958738,0.00745685,22.2,-16.35,68.85,-1.00112,0.282612,11.3177
14232378,-0.00532632,0.0117179,0.00426106,22.5,-15.6,67.8,-1.02267,0.347278,11.1357
14255204,-0.0181095,0.0106526,0.00106526,22.35,-16.65,67.65,-1.02746,0.328118,11.2339
14267375,0.00639159,0.00532632,0.00958738,22.5,-16.05,68.25,-1.00112,0.277822,11.2004
14290203,-0.0149137,0.0106526,0.00745685,22.95,-16.05,68.85,-1.0586,0.304167,11.1812
14302380,-0.00106526,0.00745685,0.00958738,22.8,-16.65,68.4,-1.03225,0.253872,11.2363
14325203,-0.00319579,0.00532632,0.0138484,22.95,-16.05,68.25,-0.974773,0.246687,11.1693
14337376,-0.0127832,0.0106526,0.00106526,22.2,-16.8,67.8,-1.06578,0.285007,11.2124
14360203,0.00426106,0.00639159,0.00745685,22.8,-17.4,69,-1.00351,0.273032,11.1573
14372375,-0.0117179,0.00958738,0.00958738,22.05,-16.2,68.7,-0.998723,0.299377,11.1788
14395203,0.00106526,0.00852211,0.00106526,22.5,-17.55,69.3,-1.02267,0.311353,11.2028
14407376,-0.0149137,0.0138484,0.00639159,21.6,-16.2,67.65,-1.12805,0.294587,11.1645
14430209,0.02024,0.015979,0.00852211,22.05,-15.45,67.95,-0.910107,0.275427,11.277
14443379,-0.00745685,0.0138484,0.00852211,23.1,-16.2,68.4,-0.943638,0.340093,11.0591
14466203,-0.00213053,0.0138484,0.00852211,22.8,-15.9,68.7,-0.883762,0.320933,11.4135
14479378,0.00639159,0.0170442,0.00532632,23.1,-16.65,68.4,-0.924478,0.352068,11.0543
14502203,-0.00745685,0.02024,0.00426106,22.2,-16.35,68.25,-1.07057,0.316143,11.3273
14514377,0.0223706,0.0138484,0.00958738,22.35,-16.95,68.7,-0.989143,0.323328,11.1764
14537217,-0.0181095,0.02024,0.00852211,21.6,-15.9,68.7,-0.993933,0.352068,11.2531
14550379,0.0149137,0.0117179,0.00852211,22.35,-16.65,67.95,-1.04423,0.359253,11.2267
14573203,-0.0234358,0.015979,0.00426106,21.3,-15.9,67.95,-1.02986,0.306563,11.1669
14585377,0.00319579,0.0149137,0.00426106,22.2,-14.85,68.25,-1.08734,0.349673,11.3297
14609210,-0.00852211,0.0191748,0.00852211,22.2,-17.1,68.25,-1.0083,0.320933,11.1118
14621382,-0.0106526,0.0149137,0.00958738,22.35,-16.95,68.4,-0.960403,0.335303,11.2938
14634377,-0.00532632,0.0117179,0.00639159,24.3,-16.35,67.5,-1.0083,0.373623,11.107
14657217,-0.0181095,0.0138484,0.00639159,22.35,-16.95,69,-1.03704,0.330513,11.2675
14670378,0.00426106,0.0106526,0.00958738,22.5,-16.05,68.55,-1.02507,0.304167,11.1788
14693203,-0.0170442,0.00745685,0.00745685,23.25,-14.25,67.8,-1.05381,0.258662,11.2124
14705377,-0.00852211,0.00319579,0.00852211,21.9,-17.55,68.55,-1.08494,0.328118,11.2315
14728203,-0.0117179,0.00426106,0.00639159,21.9,-16.8,68.85,-1.00591,0.306563,11.1836
14740378,-0.00852211,-0.00106526,0.00639159,22.8,-16.65,67.95,-1.03944,0.308958,11.2746
14763203,-0.00319579,0.00426106,0.00958738,23.4,-16.65,67.95,-1.02507,0.320933,11.1717
14775418,-0.0223706,0.00958738,0.00532632,24,-17.55,68.55,-1.05381,0.294587,11.1621
14798203,-0.00639159,0.00639159,0.00639159,21.6,-16.2,68.4,-1.03944,0.299377,11.2291
14810378,-0.0170442,0.00745685,0.00532632,22.05,-16.95,68.7,-0.993933,0.344883,11.174
14833241,-0.00958738,0.00426106,0.00532632,22.95,-16.35,68.55,-1.01549,0.316143,11.2339
14846379,-0.0138484,0.00319579,0.00639159,23.25,-14.85,68.55,-0.996328,0.294587,11.174
14869203,-0.00958738,0.00639159,0.00426106,23.1,-17.7,67.95,-0.948428,0.265847,11.2148
14881378,-0.00639159,0.00106526,0.00426106,23.55,-17.85,69.3,-0.972378,0.308958,11.1836
14905223,-0.0127832,0.00106526,0.00213053,23.1,-17.4,67.95,-1.03225,0.289797,11.1908
14918379,-0.0106526,0.00532632,0.00745685,21.45,-17.1,68.55,-0.986748,0.296982,11.2339
14931374,-0.015979,0.00745685,0.00532632,21.9,-16.05,68.55,-1.08255,0.275427,11.095
14954261,-0.0170442,0.00852211,0.00106526,22.5,-16.05,69.9,-1.03704,0.261057,11.2746
14967382,-0.0127832,0.0138484,0.00639159,22.8,-16.65,69.45,-1.07297,0.263452,11.1429
14990203,-0.0138484,0.00958738,0.00639159,22.05,-15.45,69.75,-1.04662,0.277822,11.186
15002377,-0.00532632,0.0106526,0.00745685,22.2,-17.55,67.2,-1.09213,0.306563,11.174
15025217,-0.0106526,0.0117179,0.00852211,22.05,-16.65,69,-0.991538,0.280217,11.21
15038382,-0.0117179,0.0117179,0.0117179,23.25,-17.1,67.8,-1.00351,0.287402,11.2124
15061203,-0.0117179,0.0117179,0.00745685,22.2,-17.1,69.3,-1.02507,0.261057,11.1549
15073422,-0.00319579,0.00745685,0.00639159,21.45,-16.35,68.25,-1.02507,0.318538,11.2291
15096204,-0.00958738,0.0127832,0.00745685,23.85,-16.95,68.4,-0.972378,0.287402,11.2148
15108372,-0.00639159,0.00532632,0.0117179,22.5,-16.8,67.8,-0.974773,0.306563,11.186
15131203,-0.00852211,0.00213053,0.00213053,22.8,-15.9,68.7,-0.890947,0.256267,11.1764
15144373,-0.0106526,0.00852211,0.00745685,22.05,-16.95,68.4,-1.04423,0.208367,11.2698
15157378,0.0138484,0.00958738,0.0106526,22.8,-18.45,68.4,-1.04183,0.306563,11.1788
15180203,-0.0223706,0.0117179,0.00745685,22.95,-15.3,68.85,-1.03225,0.296982,11.2052
15192378,0.0117179,0.00958738,0.00639159,23.25,-16.05,68.85,-1.04423,0.356858,11.2603
15215203,-0.0191748,0.0117179,0.0106526,22.8,-16.65,68.4,-1.0586,0.352068,11.1453
15228372,-0.00426106,0.0138484,0.00745685,23.1,-16.2,67.65,-1.05381,0.313748,11.2722
15251203,-0.00426106,0.00852211,0.00852211,23.25,-17.1,69.6,-1.03225,0.273032,11.1309
15264373,-0.0117179,0.0106526,0.00745685,24.9,-16.95,67.65,-0.974773,0.263452,11.2339
15287203,0.00213053,0.0138484,0.00745685,22.5,-17.1,68.25,-1.00351,0.344883,11.1932
15299372,-0.0181095,0.0117179,0.00852211,22.95,-16.35,69.3,-1.0083,0.268242,11.2124
15322203,-0.00319579,0.0149137,0.00426106,22.35,-15.15,68.4,-0.993933,0.275427,11.1956
15334373,-0.00319579,0.00958738,0.00745685,22.2,-15.6,68.85,-0.965193,0.308958,11.2172
15357203,-0.0127832,0.0106526,0.00639159,24,-16.05,68.85,-1.01309,0.380808,11.1717
15369372,-0.00745685,0.015979,0.00532632,22.2,-16.8,68.85,-0.998723,0.325723,11.2387
15392210,-0.00745685,0.015979,0.00426106,22.95,-17.1,68.55,-0.936453,0.251477,11.1573
15404379,-0.0191748,0.015979,0.00958738,21.9,-16.05,68.55,-0.991538,0.277822,11.2483
15427203,-0.00213053,0.0138484,0.00852211,22.2,-16.35,69.3,-0.953218,0.289797,11.174
15439382,-0.0138484,0.0149137,0.00532632,22.05,-14.7,69,-1.02267,0.280217,11.1621
15462203,-0.0117179,0.0106526,0.00426106,22.35,-18,68.4,-1.05381,0.265847,11.198
15474378,-0.00426106,0.00852211,0.00532632,22.8,-16.2,67.95,-1.00112,0.277822,11.1693
15497217,-0.00213053,0.0117179,0.00745685,22.8,-16.95,69.45,-0.984353,0.340093,11.1764
15510378,-0.0106526,0.00958738,0.00745685,21.9,-18.3,69.3,-0.991538,0.323328,11.2004
15533203,-0.00745685,0.0127832,0.00745685,21.6,-17.4,68.7,-1.03465,0.239502,11.2148
15546378,-0.00426106,0.0127832,0.00852211,23.1,-17.4,68.7,-0.938848,0.308958,11.1717
15559382,-0.00639159,0.00745685,0.00532632,22.2,-16.8,68.55,-0.943638,0.289797,11.2172
15582203,-0.00852211,0.0106526,0.00319579,23.1,-17.7,68.7,-1.02028,0.316143,11.2076
15594377,-0.0117179,0.00958738,0.0127832,23.4,-16.65,68.4,-0.977168,0.352068,11.2196
15617217,-0.0127832,0.0117179,0.00426106,23.25,-17.1,68.85,-0.986748,0.285007,11.1932
15630379,-0.00319579,0.00745685,0.00852211,22.05,-16.95,67.95,-1.0562,0.347278,11.2124
15653203,-0.0106526,0.0117179,0.00639159,22.5,-16.35,69.3,-0.989143,0.335303,11.2172
15665377,-0.0138484,0.00958738,0.00319579,22.8,-16.65,68.4,-1.02986,0.294587,11.2483
15688203,-0.00213053,0.0106526,0.00213053,23.25,-16.35,67.5,-0.969983,0.318538,11.2172
15700378,-0.0170442,0.00639159,0.00213053,22.5,-16.35,67.2,-0.929268,0.304167,11.1621
15723203,-0.00958738,0.00532632,0.00852211,23.85,-16.65,67.35,-0.958008,0.280217,11.1621
15735415,-0.0138484,-0.00106526,0.00745685,22.35,-17.4,67.65,-1.04902,0.217947,11.2579
15758203,-0.00745685,0.00958738,0.00532632,24,-14.85,68.25,-1.05141,0.292192,11.2531
15770376,0,0.00852211,0.00426106,23.4,-14.7,67.95,-1.01309,0.299377,11.1788
15793216,-0.0106526,0.00745685,0.00745685,21.9,-15.6,67.8,-1.01309,0.313748,11.2172
15806378,-0.00745685,0.00639159,0.00639159,23.1,-16.95,69.75,-1.04902,0.289797,11.2291
15829203,-0.00639159,0.00319579,0.00532632,23.55,-17.1,68.55,-1.02986,0.289797,11.1549
15841378,-0.00852211,0.00852211,0.00745685,23.4,-15.45,68.4,-1.03944,0.323328,11.2052
15865223,-0.00532632,0.00532632,0.00532632,21.45,-16.35,69.3,-0.962798,0.337698,11.174
15877379,-0.0106526,0.00852211,0.00639159,22.95,-15.6,69.3,-0.934058,0.249082,11.2315
15890372,0.00213053,0.00532632,0.00639159,21.3,-18.45,69,-1.02986,0.287402,11.2076
15913216,-0.0138484,0.00958738,0.00639159,20.7,-17.55,68.85,-0.993933,0.311353,11.2124
15926379,-0.00532632,0.00745685,0.00852211,21.9,-16.05,69.3,-1.06099,0.229922,11.2124
15949203,-0.0106526,0.00319579,0.00532632,22.2,-17.1,67.8,-1.0083,0.325723,11.1645
15961377,-0.00426106,0.00745685,0.00639159,22.35,-16.65,68.4,-1.01309,0.330513,11.2675
15984223,-0.00745685,0.0117179,0.00958738,23.1,-16.95,68.7,-0.996328,0.313748,11.2363
15997382,-0.0117179,0.00319579,0.00852211,23.1,-16.2,67.65,-0.989143,0.323328,11.1669
16020203,-0.00852211,0.00745685,0,23.85,-16.95,67.95,-1.06818,0.261057,11.2219
16032378,-0.00852211,0.0117179,0.0127832,21.9,-15.6,67.8,-1.08494,0.246687,11.2411
16055204,-0.00852211,0.0149137,0.00639159,21.6,-16.2,68.7,-1.03465,0.318538,11.2483
16067372,-0.00319579,0.0106526,0.00852211,22.05,-16.65,69.75,-1.03704,0.280217,11.21
16090203,-0.00426106,0.0149137,0.0106526,22.35,-16.95,68.4,-0.989143,0.270637,11.2052
16102377,-0.00106526,0.00852211,0.00319579,21.9,-16.35,68.55,-0.984353,0.275427,11.1693
16125203,-0.0117179,0.00532632,0.00852211,21.9,-17.1,69.6,-1.0107,0.311353,11.1717
16137373,-0.00532632,0.00745685,0.00213053,23.1,-16.65,68.4,-0.917293,0.282612,11.2842
16160217,-0.00958738,0.0138484,0.00319579,22.5,-14.85,68.85,-0.965193,0.364043,11.2315
16173378,-0.00958738,0.00958738,0,23.4,-17.4,68.4,-1.00351,0.335303,11.2603
16196203,-0.00426106,0.00958738,0.00319579,21.6,-16.95,69.45,-0.953218,0.352068,11.1764
16208378,-0.00852211,0.0117179,0.00426106,23.1,-15.9,70.5,-0.996328,0.277822,11.2746
16231209,-0.00106526,0.00532632,0.00852211,21.6,-16.65,67.95,-1.02746,0.239502,11.1836
16243379,-0.0106526,0.00852211,0.0106526,22.2,-17.55,67.8,-1.05141,0.323328,11.21
16256672,-0.00532632,0.0106526,0.00426106,23.4,-15.45,68.7,-1.0107,0.347278,11.1956
16279217,-0.00958738,0.0117179,0.00745685,21.6,-16.65,68.4,-0.984353,0.256267,11.2507
16292378,-0.00852211,0.0149137,0.00639159,22.2,-17.55,69.3,-0.981958,0.301772,11.2219
16315203,-0.015979,0.015979,0.00852211,22.5,-16.05,67.8,-0.950823,0.275427,11.186
16327377,-0.0117179,0.0149137,0.00532632,23.85,-16.2,69.75,-1.0107,0.241897,11.198
16350209,-0.00958738,0.0106526,0.00213053,22.2,-16.8,67.2,-0.993933,0.299377,11.2219
16363382,-0.00958738,0.00745685,0.00852211,23.4,-17.4,67.95,-1.01549,0.253872,11.2076
16386203,-0.00852211,0.00639159,0.00639159,24,-16.8,68.85,-0.974773,0.328118,11.1932
16398382,-0.0117179,0.00532632,0.00639159,22.2,-15.3,68.85,-0.929268,0.308958,11.2459
16421203,-0.00958738,0.00745685,0.00532632,21.6,-16.95,67.35,-0.979563,0.359253,11.1717
16433378,-0.00532632,0.0106526,0.00745685,22.2,-16.35,68.85,-0.907712,0.282612,11.2315
16456217,-0.00532632,0.00745685,0.00745685,23.1,-17.7,69,-0.965193,0.299377,11.1932
16468378,-0.00852211,0.00852211,0.00745685,23.25,-16.8,68.25,-0.962798,0.323328,11.2363
16491203,-0.00532632,0.00319579,0.00639159,23.1,-15.45,69,-0.986748,0.273032,11.2363
16503378,-0.00639159,0.00639159,0.00958738,21.6,-16.95,68.4,-1.06099,0.316143,11.1669
16526214,-0.00745685,0.0149137,0.00532632,21.3,-14.7,69,-1.02028,0.344883,11.198
16539379,-0.00958738,0.0106526,0.00319579,22.05,-18,68.4,-0.926873,0.285007,11.2052
16562203,-0.00319579,0.00639159,0.00426106,22.05,-16.95,68.7,-0.993933,0.308958,11.2459
16574434,-0.00106526,0.00319579,0.00319579,21.45,-16.35,67.8,-0.950823,0.371228,11.2291
16597203,-0.0106526,0.00319579,0.00213053,23.55,-16.35,68.85,-0.840652,0.337698,11.3297
16609377,-0.0117179,0.00213053,-0.00213053,22.8,-17.4,67.95,-0.888552,0.352068,11.3225
16632203,-0.0138484,0,0,22.95,-16.05,69.3,-0.900527,0.335303,11.1908
16645379,-0.02024,0.00532632,0,21.15,-15.3,68.85,-0.840652,0.253872,11.3225
16658377,-0.0255663,-0.00532632,-0.00852211,22.05,-16.95,68.7,-1.06339,0.167651,11.0663
16681203,-0.0191748,0.00213053,-0.00213053,22.2,-16.05,68.25,-1.09931,0.241897,11.3417
16693401,-0.0149137,0.0117179,0.00745685,23.25,-17.1,67.8,-1.17835,0.196392,11.0447
16716203,-0.00852211,0.0170442,0.00852211,22.35,-16.95,67.95,-1.06818,0.244292,11.3106
16728378,0.00106526,0.015979,0.0138484,22.35,-16.65,68.4,-0.910107,0.335303,11.1238
16751203,-0.0276969,0.0138484,0.00213053,23.1,-17.4,69.75,-1.02986,0.246687,11.3034
16764379,0.015979,0.0127832,0.00958738,22.35,-17.4,69,-0.953218,0.229922,11.1381
16787203,-0.0287621,0.0138484,0,23.25,-17.1,68.55,-1.00351,0.285007,11.186
16799378,0.00852211,0.00745685,0.00639159,22.8,-15.9,68.4,-1.02986,0.301772,11.2531
16822217,-0.0117179,0.00745685,0.00745685,22.05,-15.9,69,-1.02267,0.246687,11.0974
16835378,-0.00745685,0.00745685,0.00958738,22.5,-17.1,69.3,-0.996328,0.246687,11.2794
16858203,0.00319579,0.0106526,0.00532632,22.2,-17.55,68.25,-1.01788,0.256267,11.1477
16871378,-0.0245011,0.0181095,0.00639159,22.35,-16.65,67.95,-1.03465,0.285007,11.2579
16894209,0.00213053,0.00958738,0.0106526,22.35,-16.65,67.65,-1.0107,0.258662,11.2746
16907379,-0.0181095,0.00745685,0.00532632,22.05,-16.95,69,-0.960403,0.304167,11.1884
16920377,-0.00319579,0.0170442,0.00958738,22.8,-15.9,69.75,-0.926873,0.287402,11.2627
16943217,-0.00532632,0.0149137,0.00852211,21.3,-16.95,68.4,-0.981958,0.313748,11.1764
16956379,0,0.0106526,0.00852211,22.5,-17.55,68.25,-0.998723,0.316143,11.2627
16979203,-0.0170442,0.0117179,0.00426106,21.3,-15.9,68.7,-0.955613,0.275427,11.1453
16992383,-0.00426106,0.0149137,0.00426106,22.95,-16.05,68.55,-1.02028,0.275427,11.2339
17015204,-0.015979,0.0138484,0.00213053,23.1,-15.9,69.75,-1.02746,0.198787,11.198
17027375,-0.0127832,0.0117179,0.00319579,22.5,-16.35,68.85,-1.02267,0.256267,11.2698
17050203,-0.00532632,0.0127832,0.00639159,24,-17.1,68.55,-1.00351,0.261057,11.1429
17062380,-0.0213053,0.0127832,0.00106526,24,-17.85,68.85,-1.10171,0.325723,11.2387
17085203,0.00319579,0.0181095,0.00958738,22.5,-17.1,67.5,-1.08255,0.296982,11.2387
17097376,-0.0127832,0.0127832,0.00639159,22.35,-17.4,67.95,-1.01549,0.246687,11.2363
17120203,-0.00213053,0.0117179,0.00745685,22.35,-15.45,69,-1.02267,0.328118,11.2531
17132375,-0.00958738,0.015979,0.00532632,22.95,-17.1,67.8,-0.984353,0.268242,11.1788
17155203,-0.0127832,0.0138484,0.00532632,22.05,-16.95,67.95,-1.02746,0.258662,11.2722
17167376,-0.00958738,0.0106526,0.00958738,22.2,-16.35,68.85,-1.0586,0.301772,11.1812
17190209,-0.0149137,0.0127832,0.00213053,21.45,-16.05,68.25,-1.02507,0.294587,11.2196
17203379,-0.00639159,0.00958738,0.0117179,22.05,-18,67.95,-1.01549,0.320933,11.2172
17216377,-0.0149137,0.0127832,0.00426106,24.15,-15.15,67.65,-1.04902,0.296982,11.198
17239248,-0.00745685,0.0106526,0.00213053,22.35,-17.4,68.4,-1.03465,0.244292,11.2914
17252382,-0.00745685,0.00745685,0,20.7,-17.1,69.3,-0.986748,0.220342,11.2363
17275203,-0.015979,0.0117179,0.00106526,21.9,-16.8,68.55,-0.996328,0.232317,11.2267
17287377,-0.0117179,0.00958738,0.00426106,21.6,-16.65,68.4,-1.07057,0.237107,11.1836
17310209,-0.00745685,0.0117179,0.00426106,22.5,-16.35,68.55,-1.02267,0.258662,11.2052
17323382,-0.00958738,0.0181095,0.00213053,22.8,-15.9,67.95,-1.02746,0.292192,11.1956
17346203,-0.0117179,0.00852211,0.00319579,22.2,-16.35,68.85,-1.02507,0.258662,11.2124
17358382,-0.0138484,0.015979,0.00532632,21.45,-17.1,68.85,-1.01309,0.270637,11.21
17381203,-0.00958738,0.015979,0.00213053,22.35,-16.2,68.4,-1.07776,0.273032,11.2435
17393378,-0.00319579,0.00958738,0.00639159,23.55,-16.35,69.3,-1.08494,0.239502,11.1788
17416217,-0.0106526,0.0106526,0.0106526,22.35,-17.4,69.75,-0.977168,0.285007,11.1717
17429378,-0.00532632,0.0106526,0.00106526,22.5,-17.1,68.85,-1.02746,0.292192,11.2507
17452203,-0.00958738,0.00958738,0.00852211,23.1,-18.45,68.7,-1.09692,0.263452,11.1764
17464378,-0.0106526,0.0138484,0.00319579,21.15,-17.55,68.85,-0.998723,0.246687,11.1908
17487209,-0.00852211,0.015979,0,22.05,-17.7,68.4,-1.03225,0.263452,11.1477
17499379,-0.00852211,0.0149137,0.00213053,23.1,-16.2,68.4,-1.09931,0.220342,11.198
17522203,-0.00745685,0.015979,0.00426106,23.1,-17.4,68.7,-1.06578,0.237107,11.1693
17534434,-0.00106526,0.0138484,0.0127832,22.2,-16.35,68.55,-0.984353,0.213157,11.2315
17557203,0,0.0191748,0.00958738,23.1,-16.95,69,-0.981958,0.292192,11.1597
17569377,-0.0138484,0.0127832,0.00639159,22.35,-18,67.65,-1.06818,0.241897,11.1597
17592203,0.0138484,0.0181095,0.00532632,21.9,-16.05,68.25,-1.14721,0.241897,11.1357
17605379,-0.00426106,0.036219,0.00745685,22.8,-15.45,68.7,-1.03225,0.287402,11.3585
17618375,0.02024,0.0372843,0.00958738,22.5,-17.85,68.55,-0.946033,0.282612,11.1285
17641203,-0.0308927,0.0394148,0.00426106,22.05,-17.7,67.95,-0.991538,0.289797,11.2028
17653419,0.00532632,0.0266316,0.00639159,21.9,-16.35,68.55,-1.02507,0.294587,11.2004
17676204,-0.00852211,0.0330232,0.0106526,23.25,-18.3,67.8,-0.989143,0.304167,11.1477
17688373,-0.00213053,0.0223706,0.00745685,22.95,-17.55,68.85,-0.986748,0.285007,11.2243
17711203,-0.00639159,0.0298274,0.00745685,22.8,-17.4,69,-1.04902,0.306563,11.2076
17724374,-0.0117179,0.0308927,0.00852211,23.4,-15.45,68.7,-0.936453,0.220342,11.2531
17747203,-0.00958738,0.0287621,-0.00532632,22.95,-17.55,67.8,-0.924478,0.318538,11.2315
17759376,-0.00532632,0.0330232,0.00319579,22.35,-16.65,68.4,-0.998723,0.313748,11.2291
17782217,-0.0245011,0.036219,0.015979,22.35,-16.65,67.95,-0.883762,0.174836,11.3034
17795378,-0.0532632,0.0617853,0.0234358,22.5,-17.1,68.25,-1.17356,0.356858,11.3489
17818203,-0.0223706,0.0916127,0.04048,22.8,-16.95,68.7,-1.0586,0.356858,11.6435
17830378,-0.0841559,0.0958738,0.0255663,22.95,-16.05,68.55,-0.835862,0.263452,10.9633
17853209,-0.0628506,0.0671117,0.00958738,22.2,-17.55,68.25,-0.974773,0.237107,11.2339
17865379,-0.0543285,0.0511327,0.00958738,23.1,-17.4,67.65,-1.02267,0.158071,10.9633
17888203,-0.0234358,0.0319579,0.00532632,22.8,-16.65,68.7,-1.11368,0.193997,11.0878
17900384,-0.0276969,0.0330232,0.00532632,22.5,-16.8,68.55,-1.23583,0.182021,11.1597
17923203,0,0.0266316,-0.00213053,23.4,-17.4,67.65,-1.01549,0.148491,11.1285
17935377,-0.0138484,0.0330232,-0.00639159,23.1,-17.4,69,-1.15919,0.189207,11.1022
17958217,-0.00106526,0.0298274,-0.00532632,22.95,-17.55,68.25,-1.22146,0.256267,11.3154
17971379,-0.0127832,0.0191748,-0.00639159,23.1,-16.65,68.4,-1.14003,0.292192,11.0447
17984376,0.0245011,0.0149137,-0.00639159,22.95,-16.35,68.55,-1.08494,0.287402,11.1142
18007203,0.00319579,0.0106526,-0.0117179,23.4,-17.4,68.7,-1.18314,0.251477,11.2124
18019382,0.00745685,0.0255663,-0.00532632,23.1,-17.7,68.7,-1.15679,0.170046,11.2938
18042203,0.0447411,0.0351537,-0.00426106,23.55,-17.55,68.25,-1.0107,0.251477,11.016
18055378,-0.0308927,0.0213053,-0.00745685,24.15,-15.9,68.4,-1.23823,0.138911,11.4447
18078217,0.0266316,0.0266316,0.015979,23.1,-17.7,68.4,-1.09931,0.237107,11.1788
18090378,-0.0330232,-0.00319579,-0.00319579,22.8,-17.7,67.65,-1.21188,0.229922,11.0974
18113203,0.0372843,-0.0138484,0.00319579,23.25,-16.05,68.25,-1.19511,0.335303,11.3824
18125378,-0.0191748,0.00639159,0.00745685,23.4,-17.4,68.7,-1.13284,0.285007,11.0088
18148209,0.00639159,0.00745685,0.0127832,23.25,-18.3,68.55,-1.15919,0.246687,11.3656
18160379,0.00213053,-0.00426106,0.00532632,23.4,-16.95,68.7,-0.981958,0.129331,11.0543
18183203,-0.0351537,0.0149137,0.0127832,22.5,-16.05,68.55,-1.39151,0.60594,11.2148
18195378,0.0415453,-0.00639159,0.0223706,23.85,-16.95,67.95,-1.36995,0.308958,11.0759
18218203,0.0500674,-0.0181095,0.0181095,22.5,-16.8,68.85,-1.09213,0.613125,11.3393
18230377,0.0543285,0,0.0245011,24.15,-16.65,67.95,-0.668211,-0.0742456,10.9705
18253259,0.00958738,0.0298274,0.00319579,23.55,-17.85,68.25,-1.09931,0.205972,11.1549
18266379,0,0.04048,0.00745685,22.35,-16.2,68.4,-1.49928,-0.0311353,11.2722
18289203,0.0426106,0.0447411,0.00745685,23.4,-16.2,67.65,-1.50647,0.0622705,11.2363
18301377,-0.00106526,0.056459,0.00958738,23.1,-16.95,69.45,-1.51844,-0.141306,10.9753
18324223,0.11931,0.0905475,0.0170442,22.95,-17.1,68.85,-1.29331,0.222737,11.1884
18336382,0.0426106,0.102265,0.00532632,24,-17.55,68.85,-0.993933,0.455054,11.1022
18359203,0.04048,0.115049,0.0138484,23.4,-15.9,69,-0.931663,0.340093,11.3944
18371377,-0.015979,0.072438,-0.00745685,23.55,-16.05,68.25,-1.11608,0.287402,11.095
18394204,-0.00532632,-0.0181095,-0.0117179,23.25,-16.8,68.55,-1.63819,0.0431104,11.2411
18406379,0.015979,-0.00106526,0.00639159,23.4,-17.4,67.65,-1.11847,0.359253,11.095
18429203,-0.0415453,-0.0245011,-0.0255663,23.55,-16.35,67.5,-1.3005,0.593965,11.186
18441382,0.00426106,-0.0117179,-0.00852211,22.95,-16.05,68.55,-1.28373,0.366438,11.2603
18464203,0.0117179,-0.02024,-0.0106526,22.5,-16.35,67.8,-1.152,0.409548,11.119
18476377,-0.0117179,-0.00106526,0.00106526,24.3,-17.55,68.85,-1.38193,0.294587,11.2938
18499217,0.0468716,0,0.0149137,23.25,-16.8,68.85,-1.17595,0.352068,11.1142
18512378,-0.0149137,0.00106526,0.0106526,23.4,-17.4,68.4,-1.14721,0.251477,11.1477
18525378,0.02024,-0.0170442,0.00852211,24.15,-16.65,67.35,-1.08255,0.337698,11.2914
18548203,-0.0351537,-0.0170442,0.00213053,23.85,-17.7,68.4,-1.18553,0.323328,10.9753
18560382,0.00213053,-0.00852211,0.00532632,23.1,-16.65,67.65,-1.24781,0.376018,11.3441
18583203,0.00213053,-0.00213053,0.00852211,22.2,-16.8,69.3,-1.13045,0.354463,11.1597
18595378,-0.0245011,0.00532632,0.00319579,24,-14.85,68.85,-1.18793,0.383203,11.2794
18618203,-0.015979,0.0479369,0.0138484,24.15,-16.65,68.4,-1.36277,0.205972,11.2004
18630377,-0.0138484,0.0127832,0.0255663,23.55,-17.1,68.25,-1.36037,0.232317,11.2196
18653203,-0.02024,-0.0181095,0.0170442,24,-17.55,69.3,-1.26936,0.227527,11.21
18665378,-0.00106526,-0.00319579,0.02024,22.35,-15.45,68.4,-1.06578,0.368833,11.2196
18689206,-0.0170442,-0.00852211,0.00958738,23.1,-17.4,67.65,-1.07536,0.335303,11.0998
18701378,-0.0276969,-0.0234358,-0.00319579,22.8,-16.95,69,-1.14003,0.301772,11.2531
18724203,-0.02024,-0.0117179,-0.00745685,23.85,-15.45,68.7,-1.12087,0.347278,11.2028
18736384,-0.036219,-0.0138484,-0.0127832,23.4,-16.2,69,-1.19511,0.261057,11.1261
18759203,-0.00319579,-0.0138484,-0.00106526,22.5,-16.8,68.85,-1.16398,0.277822,11.3321
18771377,-0.0287621,-0.0117179,-0.00106526,22.95,-17.55,69.3,-1.30529,0.186812,10.9274
18794252,-0.0308927,-0.015979,0.00213053,22.95,-17.1,66.75,-1.29571,0.263452,11.3872
18807379,0.0426106,-0.00213053,0.00426106,23.1,-15.9,66.6,-0.924478,0.347278,10.9585
18830203,-0.056459,0.0255663,-0.00106526,23.25,-16.05,68.25,-1.19272,0.371228,11.4016
18842377,0.00532632,-0.00213053,0,23.25,-16.05,67.5,-1.29331,0.328118,11.0184
18865217,-0.0575243,0.00426106,-0.00639159,24.3,-16.8,67.8,-1.42264,0.215552,11.2076
18878382,0.0468716,-0.0191748,0.00532632,22.8,-16.95,69,-1.20709,0.261057,11.1357
18891377,-0.0191748,0.0106526,-0.00213053,22.95,-15.6,68.55,-0.919688,0.182021,10.9633
18914267,0.0394148,0.0181095,0.0127832,22.95,-15.6,68.25,-0.919688,0.265847,11.2962
18927379,0.00426106,0.0234358,0.00852211,22.5,-16.35,67.5,-1.06818,0.349673,11.1166
18950203,0.0340885,0.00639159,0.0138484,22.8,-16.95,70.05,-1.23344,0.249082,11.186
18962377,0.0607201,-0.00213053,0.0234358,23.4,-17.4,67.65,-1.14721,0.282612,11.3106
18985217,0.0713727,0.0106526,0.0276969,22.8,-16.95,67.35,-0.898132,0.332908,10.925
18998382,0.0351537,-0.0170442,0.0245011,24.15,-16.2,68.4,-1.02746,0.134121,11.5477
19021203,0.0735032,-0.036219,0.0266316,22.35,-16.65,68.7,-0.989143,0.325723,11.1046
19033415,0.0511327,-0.0500674,0.0415453,23.55,-16.05,67.2,-0.955613,0.311353,11.1717
19056204,0.102265,-0.0490022,0.0468716,23.4,-15.45,69.45,-1.09213,0.397573,11.2076
19069373,0.116114,-0.0607201,0.0340885,22.8,-15.45,69.45,-1.10171,0.404758,11.1046
19092203,0.162985,-0.0649811,0.0660464,22.05,-16.95,69.45,-1.12566,0.287402,11.2603
19105379,0.173638,-0.107592,0.0585895,22.8,-15.45,68.4,-0.998723,0.368833,11.1597
19118375,0.203465,-0.109722,0.0660464,22.2,-16.35,68.85,-1.12805,0.433499,11.2435
19141203,0.238619,-0.123571,0.0905475,22.8,-16.95,69,-0.835862,0.308958,11.2411
19153413,0.296144,-0.122505,0.0553937,22.2,-16.05,67.8,-0.907712,0.58199,11.0351
19176203,0.415453,-0.0575243,0.0884169,22.35,-14.7,68.4,-0.546064,0.416733,11.0423
19188373,0.516653,0.0213053,0.0969391,22.95,-14.55,69.9,-0.720901,0.0359253,10.8579
19211203,0.62531,0.0575243,0.110787,21.15,-15.3,68.85,-0.519719,0.421523,11.0471
19224375,0.713727,0.0830906,0.0990696,23.25,-13.5,69.9,-0.840652,0.766406,11.0303
19247203,0.820254,0.0980043,0.133158,22.2,-13.05,69.6,-0.895737,1.02746,11.1261
19259375,0.891626,0.0948085,0.133158,23.25,-12,69.3,-1.26218,1.25978,11.1477
19282217,0.931041,0.0639159,0.160855,22.8,-11.85,68.7,-0.989143,1.12326,10.9729
19295379,1.06313,0.1012,0.149137,23.55,-9.75,68.85,-0.890947,1.29092,10.9777
19318203,1.12172,0.0681769,0.157659,23.4,-8.4,70.8,-0.924478,1.23104,10.8651
19330377,1.33691,0.0639159,0.164051,23.1,-9.9,69.45,-1.06578,1.50647,11.0232
19353209,1.44982,0.0703075,0.225836,21.9,-8.7,70.65,-1.28613,1.57353,11.1956
19366382,1.76301,0.0117179,0.369647,24.15,-5.1,70.05,-2.25132,2.34233,12.0674
19389203,1.77899,-0.207727,0.407996,23.55,-3.45,70.95,-2.47406,2.68721,12.6901
19401382,1.88126,-0.345146,0.46339,22.35,-2.55,70.8,-1.37714,2.41418,11.6219
19424203,1.95369,-0.38456,0.573112,24.3,-1.2,69.6,-1.1041,2.79738,11.562
19436378,2.19231,-0.418649,0.687096,22.95,1.65,70.35,-1.1041,3.0273,11.7081
19459217,2.28819,-0.296144,0.810666,22.35,5.1,70.5,-0.651445,4.08351,13.5834
19472378,1.91108,-0.151268,0.869256,21.3,7.35,70.5,-0.670605,4.46911,12.18
19485376,2.02613,-0.0841559,0.88843,20.4,8.7,70.65,-0.696951,4.29188,11.7249
19508203,2.0794,0.04048,0.905475,20.7,11.55,68.55,-1.26457,3.13029,11.8399
19520384,1.46261,0.04048,0.569916,21.45,13.5,68.85,-4.91937,2.15791,15.0851
19543203,1.16753,-0.00426106,0.224771,20.7,16.8,68.85,-2.23216,0.857417,12.556
19555377,0.327036,0.0649811,-0.0234358,21.15,16.05,69.9,-0.263452,-0.725691,11.3345
19578217,0.520914,0.116114,0.0639159,20.1,18.6,68.55,0.397573,-1.152,11.3513
19590379,-0.148072,0.112918,0.111853,21,19.5,67.65,0.447869,-1.33403,11.2243
19613203,-0.414388,0.0745685,0.153398,19.65,17.55,66.15,0.227527,-1.76752,11.5932
19626377,-0.793622,0.0916127,0.147006,19.5,19.2,67.05,-0.0455054,-1.56634,10.2759
19649209,-1.11001,0.102265,0.0479369,21.45,18.6,64.65,-0.66342,-1.38432,11.495
19661382,-1.42106,0.122505,-0.0873517,20.4,17.55,67.5,-0.881367,-0.878972,11.9165
19684203,-2.00376,0.128897,-0.233293,20.7,17.55,64.05,-1.22865,-0.450264,11.2722
19696404,-2.08366,0.0894822,-0.334493,20.4,16.05,64.35,-1.38911,0.0694556,11.1908
19719203,-2.33826,0.149137,-0.431432,20.7,14.55,64.35,-1.01309,0.905317,11.1142
19731378,-2.47354,0.284426,-0.46339,21.9,13.5,64.05,-1.11129,1.46575,11.1309
19754263,-2.53746,0.436758,-0.527306,21,10.65,64.95,-2.0669,2.32077,11.2219
19767379,-2.47887,0.448476,-0.737163,22.95,10.5,62.55,-3.7027,3.19975,12.5368
19790203,-2.69725,0.254598,-1.10042,24.9,8.1,62.85,-4.75172,4.51701,13.0757
19802378,-2.47567,0.1012,-1.33691,24.9,5.85,62.85,-3.96376,6.10491,11.3393
19825217,-2.11881,0.176834,-1.37313,25.95,6.15,63.15,-2.52675,7.63053,10.1322
19837379,-1.67247,0.287621,-1.23677,25.35,3.75,64.05,-2.02858,8.41131,12.362
19860203,-1.33052,0.488956,-1.02691,25.8,4.2,62.55,-1.02986,8.51669,13.3775
19873419,-1.64051,0.709466,-0.82558,25.05,1.2,61.5,-0.423918,7.88201,17.7484
19886378,-1.75875,0.777643,-0.761664,25.95,1.05,61.8,0.759221,5.82948,10.6807
19909203,-1.60748,0.438889,-0.632767,26.25,-0.6,61.8,0.512534,5.74805,11.6123
19921377,-1.24956,0.149137,-0.459129,26.85,-2.7,60.9,0.768801,5.384,10.1394
19944223,-1.43491,0.0436758,-0.317449,26.4,-3.75,61.95,0.0694556,4.73016,11.3968
19957382,-1.14409,-0.052198,-0.128897,27,-4.05,62.85,0.328118,3.91825,10.9154
19980203,-1.40189,0.0372843,0.0372843,27,-4.05,61.8,0.59157,3.71468,12.2207
19992388,-1.48604,0.154463,0.280165,27.6,-7.2,63,0.996328,3.15903,11.7656
20015204,-1.47433,0.307861,0.561394,27,-7.35,62.1,1.41785,2.48364,8.87722
20027375,-0.994957,0.268447,0.768056,26.85,-8.25,62.55,0.720901,2.04535,8.62096
20050203,-0.917193,0.181095,0.82771,27.75,-9.15,60.75,-0.201182,2.10522,9.17181
20063380,-0.771251,0.0948085,0.813862,28.5,-10.65,62.1,-0.972378,2.31838,10.5753
20086203,-0.796818,0.0276969,0.738228,28.65,-9.75,61.95,-1.26697,2.36867,9.04967
20098376,-0.534763,-0.0170442,0.719053,28.8,-11.4,60.75,-0.914898,2.26808,10.1202
20121217,-0.460194,0.00958738,0.76486,28.8,-10.65,60.75,-0.668211,2.23695,9.28917
20134378,-0.192813,-0.036219,0.631702,28.5,-12.45,61.35,-1.07536,3.20214,3.43813
20157203,1.59364,-0.306796,0.456998,27.6,-11.55,61.2,-1.68609,0.888552,9.20295
20169378,-0.0106526,0.437824,0.115049,29.55,-10.35,62.4,-5.60435,-1.96152,16.1581
20192209,0.115049,0.438889,0.0340885,29.7,-10.5,61.5,-4.37091,-2.04056,10.5705
20204379,0.548611,0.0553937,0.0255663,30.15,-9.15,61.35,-2.90276,-2.33754,6.79835
20217377,0.936367,-0.192813,0.133158,29.25,-9.3,60.9,-3.10155,-1.31487,13.2481
20240217,0.698813,-0.156594,0.0553937,30.6,-8.85,60.75,-2.52675,-0.823887,9.68913
20253379,0.970456,-0.183225,0.02024,30.15,-8.1,61.8,-2.04774,-0.517324,12.3931
20276203,0.762729,-0.151268,0.0255663,30,-7.2,61.95,-2.07648,0.61073,14.0529
20288377,0.337689,-0.132093,-0.0735032,29.25,-6,61.95,-2.01421,-0.265847,12.3859
20311209,0.472977,-0.158724,-0.0862864,30.6,-5.85,62.85,-0.941243,-0.60115,11.4591
20323382,0.333428,-0.111853,-0.0127832,29.25,-6,62.25,-1.85854,-0.323328,11.5525
20346203,0.367516,-0.109722,-0.100135,30.6,-5.1,61.8,-2.80696,0.227527,13.0038
20358382,0.0245011,-0.0351537,-0.0980043,28.5,-4.8,62.4,-0.65863,-0.419128,11.0735
20381203,0.234358,-0.0756338,-0.0415453,28.8,-4.8,62.1,-0.146096,-0.366438,12.2758
20393378,0.0127832,-0.0127832,0.0330232,29.55,-3.3,63.15,-1.12087,-0.294587,10.9369
20416203,0.0980043,-0.0703075,0.0138484,28.5,-4.35,62.1,-3.14466,-0.543669,10.6112
20428377,0.309992,-0.0969391,-0.0585895,29.55,-3.6,63.45,-2.65129,0.490979,12.4721
20451203,-0.196009,-0.0319579,-0.113983,30,-5.25,61.2,-1.28613,0.522114,12.9943
20463378,-0.110787,-0.124636,-0.112918,28.65,-4.5,63,-1.09931,-0.661025,10.1562
20487223,0.00532632,-0.110787,-0.0490022,28.05,-4.35,62.1,-0.308958,-0.912502,10.4867
20500379,-0.00745685,-0.0788296,0.015979,28.2,-5.25,62.55,-1.98068,-0.59157,10.0436
20523203,0.197074,-0.120375,-0.0298274,30,-4.5,61.5,-0.682581,-0.385598,11.8542
20535415,-0.0117179,-0.0798948,0.0308927,29.25,-5.25,61.95,-0.447869,-0.617915,10.0867
20558203,0.253533,-0.148072,0.0372843,28.8,-5.85,61.05,-2.28245,-0.486189,10.4867
20570377,0.411192,-0.18003,0.00745685,27.9,-3.45,61.95,-1.95434,0.268242,11.0878
20593220,0.02024,-0.197074,-0.0436758,28.65,-3,62.55,-1.06099,-0.306563,10.9274
20606379,0.497478,-0.233293,0.0127832,29.85,-4.05,62.4,-0.423918,-0.368833,11.2219
20619373,0.102265,-0.214118,0.0458064,27.75,-2.1,62.1,-1.21188,-0.742456,10.6831
20642203,0.311057,-0.215183,0.0852212,26.85,-3.45,62.25,-1.14961,-0.0694556,11.6387
20654416,0.251402,-0.274838,0.0543285,28.5,-2.55,63.15,-1.57592,0.00958008,10.2568
20677203,0.302535,-0.328101,0.036219,28.95,-2.4,62.25,-1.42025,0.0455054,11.1669
20689373,0.449542,-0.358994,0.0532632,28.95,-3,62.25,-1.44659,0.210762,11.028
20712203,0.481499,-0.253533,0.0287621,27,-1.35,62.85,-0.56762,0.411943,12.9535
20725379,0.0106526,-0.103331,0.0223706,25.8,-0.15,62.25,-1.20709,0.443079,11.5429
20748203,0.214118,-0.0543285,0.0436758,28.05,-1.35,64.5,-0.64905,0.395178,11.6435
20760378,-0.0234358,0.00213053,0.0106526,25.65,0,62.4,-0.598755,0.766406,11.7345
20783217,0.0383495,0.0255663,0.00106526,25.8,-1.65,62.55,-0.876577,0.189207,11.4447
20796378,-0.0308927,0.0703075,0.00745685,27,-1.05,63.15,-1.26218,-0.105381,11.2148
20819203,0.00745685,0.102265,0.0458064,26.7,-1.35,62.4,-1.6358,0.213157,11.6171
20831378,0.0170442,0.132093,0.0511327,26.1,-1.65,63.6,-0.845442,0.301772,11.1501
20854203,-0.155529,0.138484,0.0330232,27.75,-1.8,63.15,-1.12805,0.390388,11.2914
20866377,-0.11931,0.201335,0.0490022,28.2,-1.2,62.55,-1.24541,0.59636,12.0123
20889203,-0.0958738,0.194943,0.056459,29.25,-0.9,61.95,-1.59269,0.00239502,10.4819
20901384,-0.0681769,0.14168,0.0287621,27.3,-1.35,62.1,-1.75555,0.189207,11.1764
20924203,0.02024,0.056459,0.0106526,27.9,-1.2,62.55,-1.28134,0.361648,10.5226
20937377,-0.0862864,0.0138484,0.00213053,29.1,-1.05,62.1,-1.62861,0.0383203,11.5573
20950378,0.105461,-0.0596548,0.0245011,27.9,-2.7,62.25,-1.16398,0.146096,11.1405
20973210,-0.230097,-0.103331,0.00639159,27,-1.05,62.85,-1.69807,0.0742456,11.4638
20986379,0.0340885,-0.0756338,0.0330232,27,-1.35,61.8,-1.31726,0.342488,11.1956
21009203,-0.072438,-0.0532632,0.0245011,27.3,-1.35,62.85,-1.24781,0.143701,10.5058
21021382,0.0436758,-0.0756338,0.0287621,27.75,-1.8,62.85,-1.24062,-0.138911,11.2962
21044203,0.0351537,-0.0713727,0.0319579,25.95,0.3,61.05,-1.2981,0.136516,10.8795
21056377,0.0298274,-0.132093,0.0330232,27.9,-1.95,62.25,-0.66342,0.299377,11.3249
21079217,0.0298274,-0.134223,0.0415453,26.1,-1.2,61.95,-1.04902,0.294587,11.0447
21092378,0.072438,-0.113983,0.02024,27,-1.05,62.85,-1.34121,0.407153,11.1285
21115203,0.052198,-0.0703075,0.0234358,27.9,-0.9,61.5,-1.31008,-0.0958008,11.1453
21127377,0.0873517,-0.0426106,0.0181095,27.15,-1.2,62.55,-1.10171,0.0742456,11.5884
21150209,0.0980043,-0.02024,0.02024,28.05,-0.6,63.15,-0.787961,0.313748,10.8507
21162382,-0.0117179,0.0138484,0.00745685,26.85,-0.9,61.95,-0.953218,0.361648,11.6818
21185203,0.0884169,0.0181095,0.00532632,27.9,0.45,62.25,-1.1065,0.320933,11.1693
21198382,-0.00852211,0.0298274,-0.00213053,26.85,-1.2,61.2,-1.05141,0.323328,11.1094
21221203,0.0553937,0.036219,0.0138484,28.65,-0.45,63.3,-1.346,0.210762,11.2004
21234378,0.0117179,0.0532632,0.0127832,27.9,-1.65,62.55,-1.17835,0.138911,11.1166
21247377,0.0628506,0.052198,0.02024,26.85,-0.9,63,-1.20948,0.155676,11.2219
21270203,0.0969391,0.0585895,0.0340885,27.3,-1.35,63.15,-1.24302,0.419128,10.8771
21282377,0.0596548,0.0500674,0.0223706,27.15,-0.45,63.3,-1.1041,0.337698,11.471
21305203,0.0607201,0.0223706,0.0170442,27.6,-1.65,63.3,-1.02507,0.383203,11.0735
21318406,0.0415453,0.0479369,0.0234358,28.05,-0.6,61.8,-1.16637,0.100591,11.0878
21341203,0.112918,0.0308927,0.0181095,26.1,-0.45,62.55,-1.18553,0.426313,11.0926
21353377,0.0500674,0.0426106,0.0191748,27.15,-0.15,62.55,-1.12087,0.416733,11.2243
21376217,0.106526,0.036219,0.0245011,27,0,63.45,-1.11608,0.411943,11.3417
21389379,0.0106526,0.0138484,0.00745685,26.85,0.15,63,-1.19272,0.352068,11.2315
21412203,0.0415453,-0.00852211,0.00106526,28.65,-0.45,61.95,-1.23344,0.500559,11.2818
21425377,0.0511327,0.00532632,0.00639159,26.4,-0.9,62.55,-0.984353,0.270637,10.9321
21448209,0.0543285,0.00639159,0.0106526,27.6,0.45,63.3,-1.18314,0.364043,11.471
21461382,0.036219,-0.00532632,0.00639159,27.15,-0.45,63.6,-1.14482,0.469424,10.9657
21474377,0.04048,0.00213053,0.00639159,27.75,0.6,62.1,-1.17835,0.407153,11.0782
21497249,0.0745685,0.0245011,0.00958738,28.2,0.15,62.25,-1.10889,0.368833,11.1836
21510378,0.129962,0.1012,0.02024,28.2,-0.45,63,-1.14482,0.399968,10.8268
21533203,0.175769,0.1012,0.00852211,26.25,-0.3,62.85,-1.18314,0.392783,11.4878
21545377,-0.0543285,0.0149137,0.00639159,28.5,0.6,62.1,-2.49561,0.0622705,11.1309
21568209,0.219444,-0.0330232,0.0223706,25.95,-0.3,62.4,-1.36277,0.366438,10.8962
21580382,0.0266316,-0.0276969,-0.00426106,28.5,-1.35,62.1,-1.07297,0.65384,11.2028
21603203,0.143811,-0.02024,0.0117179,27.3,0.6,62.4,-1.02028,0.792751,11.2603
21615416,0.0862864,-0.0127832,0.00106526,28.05,0,62.85,-1.13763,0.708926,11.2842
21638203,0.131028,-0.00319579,0.00426106,27.6,0.9,62.55,-1.17595,0.517324,11.483
21651378,0.181095,-0.0415453,0.015979,27.3,1.35,62.1,-1.02507,0.304167,11.0327
21674203,0.125701,-0.106526,-0.0191748,28.5,2.1,62.4,-0.941243,0.63947,11.028
21686377,0.208792,-0.105461,0.00213053,26.85,0.45,62.55,-0.979563,0.421523,11.4064
21709203,0.210922,-0.128897,-0.0191748,27.9,1.65,61.95,-0.910107,0.56762,10.8172
21721378,0.291882,-0.148072,-0.0127832,27.6,1.65,63.3,-1.2981,0.826282,11.3728
21744223,0.365386,-0.0798948,0.0340885,27.6,1.2,62.55,-1.08734,0.627495,10.9561
21757379,0.475108,-0.0127832,0.0596548,28.5,1.8,62.4,-0.792751,0.773591,11.004
21770674,0.56246,0,0.0798948,27.6,3,61.5,-0.773591,0.459844,10.7525
21793220,0.690291,0.0660464,0.120375,26.25,2.85,62.1,-0.972378,0.651445,11.1525
21806378,0.852211,0.0884169,0.118244,27.3,3.3,63.15,-0.792751,0.914898,10.8866
21829203,1.02905,0.0884169,0.0948085,27.3,5.85,62.4,-0.847837,1.06818,10.9681
21841377,1.17073,0.128897,0.0735032,27.3,6.15,62.1,-0.886157,1.28134,10.9345
21864223,1.2943,0.12144,0.0873517,27.9,6.75,62.55,-0.907712,1.16398,10.822
21877382,1.52439,0.0713727,0.0798948,28.8,7.35,63.45,-0.64905,1.50407,10.8268
21900203,1.68312,0.0447411,0.12144,26.7,8.1,62.4,-1.0107,2.07648,10.8459
21912391,1.86208,0.076699,0.194943,27.3,9.9,63.45,-1.35319,2.17947,11.2363
21935204,2.10922,-0.00213053,0.225836,28.95,10.5,61.5,-1.46096,2.58902,11.0639
21947375,2.3031,-0.0479369,0.30147,27.75,13.95,60.75,-1.82021,2.86205,11.4686
21970203,2.52681,-0.147006,0.324906,28.05,15.9,60.3,-1.56874,3.81527,11.701
21983380,2.56516,-0.170442,0.392017,28.05,16.65,59.25,-2.09325,4.04998,12.5823
22006203,2.88261,-0.236489,0.469782,28.2,18.6,59.4,-1.86812,4.05956,11.9644
22018375,2.86663,-0.331297,0.531567,26.85,23.4,58.35,-2.07409,4.30146,12.3021
22041217,3.05092,-0.417584,0.601874,26.85,24.15,57.75,-1.93278,5.13492,12.8386
22054378,3.08927,-0.368581,0.632767,25.8,26.1,57,-1.34121,6.06419,14.9318
22077203,2.14331,-0.167247,0.599744,26.25,27.75,55.05,-1.59748,7.92752,15.7174
22090380,1.68525,-0.147006,0.455933,25.05,31.65,55.65,0.399968,7.1659,11.0759
22103382,2.56196,0.383495,0.776578,23.85,33.3,54.75,-1.32684,1.71483,10.0292
22126203,-0.541154,0.684965,0.609331,23.85,34.35,55.5,-6.06179,4.89063,22.4666
22138378,-0.904409,0.28123,0.379234,24.3,35.25,53.85,-5.81032,0.0263452,8.03897
22161217,-0.842624,-0.0490022,0.113983,24,34.5,56.25,-1.4897,-0.680186,4.38417
22174378,-0.26312,0.0788296,0.169377,22.8,34.35,55.05,-0.296982,0.126936,5.50504
22197203,-0.546481,0.332363,0.14168,22.8,34.05,55.8,-0.960403,0.857417,9.42568
22209378,-1.27193,0.278034,-0.0990696,23.1,34.35,55.5,-2.09804,1.20948,11.6746
22232203,-1.70655,0.166181,-0.333428,21.3,33.3,56.55,-1.38672,0.924478,9.00416
22244377,-1.97713,0.199204,-0.44315,22.2,31.95,57.75,-0.447869,1.0586,9.04967
22267203,-1.91961,0.266316,-0.474043,22.5,30.45,59.85,-0.574805,1.6837,8.41259
22279384,-2.12307,0.294013,-0.539024,21.6,31.05,61.05,-0.929268,2.35191,9.2724
22302203,-2.01228,0.230097,-0.613592,23.85,27.75,61.8,-1.32684,3.16622,9.73225
22314377,-2.2573,0.194943,-0.748881,23.4,27,62.85,-1.90404,4.54575,11.4279
22337217,-2.24984,0.14168,-0.841559,23.25,24.15,63.6,-1.56634,5.384,11.5333
22350379,-2.43413,0.124636,-0.877778,24.45,23.7,65.55,-0.955613,5.66901,11.4926
22373203,-2.27327,0.107592,-0.811731,24.75,19.8,67.2,-1.15919,5.61153,11.3201
22385377,-2.34252,0.106526,-0.775512,24.9,18.75,69,-1.09931,5.46064,10.9657
22408209,-2.22214,0.127832,-0.752077,24.45,15.45,70.5,-1.04902,5.10379,11.3297
22421382,-2.09857,0.184291,-0.671117,25.65,13.65,71.1,-1.33882,4.8068,10.7262
22434674,-2.04318,0.193878,-0.640224,25.8,9.75,71.7,-1.31487,4.34217,10.8842
22457217,-1.76621,0.226901,-0.570982,24.75,6,72.45,-1.27415,3.87993,10.7861
22470379,-1.62453,0.234358,-0.513457,25.2,4.05,71.85,-1.32445,3.56139,10.9417
22493203,-1.45622,0.217314,-0.436758,26.25,1.35,71.1,-1.40109,3.87993,13.811
22505377,-1.77899,0.2024,-0.410127,26.25,-1.8,71.85,-1.48012,3.73384,13.6337
22528209,-1.81841,0.226901,-0.345146,27.6,-1.95,71.4,-1.1999,3.38656,13.6074
22540382,-1.82799,0.298274,-0.262055,26.25,-5.85,70.5,-0.864602,3.48715,12.1105
22563203,-1.78112,0.367516,-0.172573,26.85,-7.95,70.65,-0.6251,3.50631,11.9596
22575416,-1.58831,0.38243,-0.0447411,26.7,-9.9,69.45,-0.0359253,2.64889,9.63645
22598203,-1.35182,0.383495,0.0458064,27,-12.15,68.7,-0.795147,2.05014,9.90948
22611378,-0.996022,0.296144,0.0969391,26.4,-14.25,67.8,-1.40827,2.49322,12.1129
22634257,-1.28045,0.22264,0.076699,27.15,-14.55,67.8,-1.23344,2.33035,12.2398
22647379,-1.25488,0.20027,0.111853,26.7,-17.7,66,-0.917293,1.78908,11.1621
22660377,-1.00454,0.229032,0.185356,27,-18,66.3,-1.07536,2.12678,11.186
22683203,-1.09403,0.157659,0.106526,28.5,-19.95,64.2,-2.2106,2.11959,10.5226
22695422,-0.864995,0.0383495,0.00639159,27.9,-20.55,64.05,-2.32077,2.08606,10.0532
22718203,-0.641289,0.0532632,-0.0735032,27.3,-20.7,62.4,-2.04295,1.89925,8.7934
22730377,-0.395213,0.109722,-0.175769,27.3,-22.2,61.35,-2.49561,1.66454,9.2724
22753223,-0.0948085,0.126766,-0.274838,27.75,-22.2,62.1,-2.23934,1.54718,8.58264
22766379,-0.015979,0.164051,-0.345146,27.75,-23.25,62.1,-1.84656,0.701741,9.07362
22789203,0.292948,0.18216,-0.298274,27,-22.95,61.35,-1.23344,0.361648,9.12631
22801377,0.236489,0.175769,-0.20027,26.1,-23.1,62.25,-0.479004,-0.232317,9.39215
22824223,0.392017,0.190682,0.036219,27,-23.25,61.35,-0.112566,0.0670606,9.53825
22837382,0.380299,0.30147,0.122505,27.15,-23.85,60.9,-1.20469,0.859812,9.69872
22860203,0.609331,0.488956,0.150202,27.3,-22.5,61.8,-2.20102,1.59508,9.85679
22872388,0.593352,0.614658,0.0862864,27.75,-23.25,61.8,-3.02251,2.03337,11.6219
22895204,0.993892,-0.346211,-0.495348,28.8,-21.75,62.4,-5.60674,-2.23216,12.6997
22907375,0.00426106,-0.117179,-0.472977,28.8,-21.45,61.05,-4.84991,-4.37331,18.2561
22930203,-0.0905475,-0.0788296,-0.0553937,27.15,-21.9,62.55,-2.6465,-2.87402,4.25005
22943380,0.917193,-0.289752,0.225836,27,-21,62.4,-2.11241,-1.61903,12.6039
22966203,0.292948,-0.0649811,0.272708,28.2,-21.15,62.25,-2.92432,-0.342488,12.3644
22978375,-0.0255663,0.0138484,0.215183,28.05,-21.45,61.8,-2.94587,-1.5855,10.8603
23001217,0.647681,-0.0735032,0.264186,28.05,-21,63.15,-2.53633,-2.02858,8.18746
23014378,0.534763,-0.174703,0.278034,29.55,-20.7,62.85,-3.19496,-0.747246,12.0267
23027377,0.549676,-0.299339,0.205596,29.7,-19.8,63.3,-3.75779,-0.122146,10.7789
23050203,0.566721,-0.389887,0.076699,27.15,-20.1,63.3,-3.56139,-0.603545,9.88313
23062382,0.721184,-0.438889,0.0117179,27.9,-19.05,65.1,-2.25611,-0.797542,10.6447
23085203,0.754207,-0.397344,0.0479369,28.2,-19.05,65.7,-0.680186,-0.150886,12.647
23098378,0.518784,-0.333428,0.123571,26.7,-18,66.6,-1.15679,-0.0359253,11.5668
23121217,0.559264,-0.371777,0.131028,27.75,-18,66,-2.31359,-0.136516,11.5812
23133378,0.532632,-0.447411,0.107592,27.15,-17.85,66.45,-2.14833,0.102986,11.3441
23156203,0.438889,-0.50387,0.102265,26.85,-16.8,66.45,-1.72681,-0.00239502,11.7465
23168378,0.464455,-0.506001,0.109722,26.7,-16.2,66.6,-1.54239,0.311353,11.8423
23191209,0.210922,-0.492152,0.0596548,25.05,-16.05,66.45,-1.51126,0.256267,11.3034
23204379,0.40267,-0.510262,0.0426106,24.3,-14.55,67.2,-1.50647,0.426313,11.2555
23227203,0.383495,-0.392017,0.0415453,24.3,-14.85,67.2,-0.991538,0.962798,12.2853
23240378,0.00745685,-0.274838,0.0170442,24.9,-15.45,67.65,-0.943638,-0.110171,11.6099
23263203,0.325971,-0.251402,0.0394148,25.2,-17.4,66.6,-1.59029,-0.00718506,10.3933
23275377,0.196009,-0.246076,0.0308927,24.15,-15.45,67.95,-1.31726,0.0981958,12.1704
23298226,0.216249,-0.199204,0.0479369,24.45,-14.4,68.4,-0.749641,0.251477,11.2603
23311379,0.0649811,-0.127832,0.015979,24.45,-14.7,67.95,-0.440684,0.428709,11.6363
23324377,0.111853,-0.04048,0.0138484,24.3,-14.55,68.85,-0.728086,0.737666,11.7033
23347203,-0.0213053,0.036219,0.0170442,23.25,-14.25,67.2,-1.03944,0.404758,11.5573
23359377,0.152333,0.0149137,0.0170442,23.85,-15.15,68.4,-1.03944,0.433499,10.3094
23382203,0.116114,-0.0649811,0.00852211,22.8,-14.7,67.65,-0.740061,0.306563,12.0818
23394378,0.0649811,-0.0649811,0.04048,23.85,-13.2,67.65,-1.26457,0.232317,11.2675
23417249,0.133158,-0.0383495,0.0639159,25.35,-13.8,69.6,-1.01309,0.747246,11.9907
23430378,-0.0106526,0.0809601,0.0468716,23.55,-15.3,67.8,-0.756826,0.627495,11.0232
23453203,0.0351537,0.052198,0.0628506,24.15,-14.7,67.95,-1.47294,-0.00718506,11.5692
23465378,0.115049,0.0426106,0.0447411,23.55,-14.55,68.85,-1.08015,0.431104,10.6926
23488209,0.0127832,0.0884169,0.0330232,24.75,-15.6,69.6,-1.16637,0.821492,11.9165
23501379,0.0948085,0.0276969,0.0351537,24.9,-14.4,68.4,-0.311353,0.301772,11.0447
23524203,-0.0660464,-0.0511327,-0.00106526,23.4,-15.15,69.45,-1.2023,0.455054,11.5093
23536384,0.0649811,-0.0532632,0.0181095,25.05,-15.3,68.55,-1.31247,0.502954,11.5573
23559203,-0.04048,-0.00106526,0.0138484,25.05,-13.5,69.6,-0.876577,0.510139,11.1621
23572377,0.00958738,0.0330232,0.015979,24.15,-13.65,67.95,-0.991538,0.462239,11.3058
23585377,-0.0479369,0.0383495,0.00106526,24.45,-13.2,68.4,-1.14961,0.730481,11.1717
23608209,0.0490022,0.0628506,0.00213053,24.3,-13.8,68.55,-0.998723,0.100591,11.0471
23621382,0.00958738,0.0639159,-0.00532632,24,-13.5,68.85,-1.22146,0.529299,11.313
23644203,0.0415453,0.0671117,0.00745685,23.55,-14.85,69.6,-1.11129,0.718506,11.21
23657382,0.0266316,0.0703075,-0.00958738,24.3,-13.8,68.55,-0.900527,0.61552,11.1597
23680203,0.0436758,0.0596548,0,23.55,-13.8,68.25,-1.08015,0.500559,11.3465
23693378,0.0575243,0.0426106,0.00745685,25.2,-13.2,67.65,-1.26218,0.58199,11.2124
23716217,0,0.036219,0.00639159,24,-13.5,68.85,-1.13045,0.5772,11.2507
23729378,0.0884169,0.0468716,0.0138484,24.3,-14.25,68.25,-1.17356,0.431104,11.0926
23742377,0.0383495,0.0671117,0.00426106,24.3,-13.8,68.85,-1.23823,0.622705,11.0878
23765203,0.0798948,0.056459,0.0117179,24.75,-13.5,67.8,-1.16398,0.476609,11.1573
23777378,0.0319579,0.0415453,0.00958738,24.9,-13.95,70.05,-1.1544,0.589175,11.198
23800203,0.056459,0.0809601,0.0106526,24,-13.8,69.3,-1.40588,0.617915,11.1333
23812377,0.0351537,-0.0127832,-0.0170442,24.45,-12.45,69,-0.59636,0.59157,11.2459
23835248,-0.0266316,-0.036219,-0.0234358,24,-14.25,67.8,-1.15679,0.878972,11.3393
23848379,0.0543285,-0.0287621,-0.00106526,25.35,-12,69.9,-1.23583,0.5772,11.2004
23871203,0.0223706,0.00639159,0.00106526,25.35,-14.55,69.3,-1.22386,0.522114,11.0711
23883377,0.0276969,0.0170442,0.00958738,23.55,-14.25,69.9,-1.3939,0.548459,11.3082
23906213,0.0298274,0.0191748,0.00958738,24,-13.05,68.55,-1.35079,0.687371,11.1812
23918382,0.02024,0.0276969,0.00852211,25.65,-12.45,69.45,-1.27655,0.675396,11.2052
23941203,0.0500674,0.0181095,0.0138484,24.75,-14.55,68.25,-1.35079,0.696951,11.1693
23953419,0.00319579,0.00852211,0.0106526,24.45,-13.95,67.95,-1.28852,0.534089,11.0926
23976204,0.0447411,0.00852211,0.0170442,23.55,-13.5,68.25,-1.23823,0.414338,11.1309
23989373,0.0223706,0.00426106,0.0181095,24.3,-14.85,68.55,-1.37235,0.617915,11.0327
24012203,0.0351537,0.00213053,0.0138484,25.05,-12.3,69.6,-1.31487,0.737666,11.2028
24025379,0.0138484,-0.00639159,0.00532632,24.15,-12.45,69.45,-1.27415,0.593965,11.1812
24048203,0.00532632,-0.0213053,0.0106526,25.8,-13.5,68.55,-1.36037,0.752036,11.0998
24060378,-0.00426106,-0.0458064,0.00745685,24.9,-13.65,68.7,-1.33163,0.670605,11.2172
24083217,0.0170442,-0.0511327,0.00852211,24,-13.05,67.8,-1.07536,0.684976,11.1094
24096378,0.00639159,-0.0394148,0.00532632,23.85,-12.15,67.95,-1.30289,0.677791,11.2124
24109375,0.0106526,-0.0308927,0.00852211,24.45,-13.95,69.75,-1.32205,0.59157,11.1094
24132203,0.0106526,-0.0117179,0.0127832,24.9,-14.4,69.45,-1.09931,0.529299,11.1477
24145379,-0.00106526,0.0170442,0.00745685,24.3,-12.75,69.6,-1.1999,0.64426,11.1621
24168203,0.036219,0.00426106,0.00426106,24.15,-12.9,69.45,-1.31726,0.481399,11.1166
24180377,0.0191748,-0.0276969,0.0117179,24.3,-12.75,70.65,-1.28373,0.565225,11.1261
24204221,0.0415453,-0.0319579,0.00852211,25.2,-12.45,69.45,-1.28373,0.435894,11.0687
24217379,0.0969391,-0.00213053,0.0223706,24.3,-13.05,69.3,-1.19032,0.522114,11.2267
24240203,0.105461,0.00106526,0.0255663,24,-12.3,69.9,-1.28134,0.64426,11.0471
24252393,0.123571,0.0308927,0.0266316,25.2,-12.15,69.75,-1.43941,0.761616,11.2914
24275204,0.140615,0.124636,0.0287621,23.85,-12.15,67.65,-1.33882,0.740061,11.3321
24288375,0.0703075,0.0735032,-0.00532632,25.35,-12,68.85,-0.239502,0.546064,10.8842
24301377,0.227967,-0.0170442,0.00639159,24.3,-12,69.3,-1.35798,0.617915,11.4016
24324223,0.177899,-0.0223706,0.0255663,24,-9.3,69.3,-1.18314,0.493374,10.6831
24337382,0.298274,-0.0596548,0.0276969,25.05,-11.25,69.9,-1.13763,0.641865,11.4016
24360203,0.369647,-0.0458064,0.0372843,24.9,-12.15,69,-0.981958,0.457449,10.6926
24372393,0.460194,-0.0287621,0.0511327,25.65,-12.45,69.45,-0.881367,0.63468,11.1022
24395204,0.601874,0.0436758,0.0692422,24.9,-11.4,68.4,-0.785566,0.661025,10.7956
24407375,0.664725,0.128897,0.0809601,24.15,-11.85,70.05,-0.890947,1.11608,11.1597
24430203,0.937433,0.153398,0.0905475,23.85,-9.9,69.75,-0.888552,1.25739,10.6615
24442380,0.939563,0.174703,0.0703075,23.85,-9.9,70.8,-0.814307,1.31487,11.028
24465203,1.15155,0.213053,0.0873517,24.9,-8.4,71.55,-0.869392,1.73399,10.901
24477375,1.17286,0.210922,0.056459,25.65,-6.6,70.8,-0.938848,1.95194,10.9321
24500217,1.34436,0.192813,0.0511327,25.05,-6,71.4,-0.929268,2.28724,10.9034
24513378,1.3433,0.204531,0.0788296,25.05,-5.25,69.3,-1.32924,2.0214,10.8819
24536203,1.43278,0.251402,0.117179,26.4,-2.4,72,-1.50168,2.21779,10.8052
24548377,1.52759,0.297209,0.136354,25.95,-2.85,71.55,-1.46096,2.60578,10.8124
24571209,1.67673,0.389887,0.174703,26.25,-1.8,72.6,-1.45857,2.85965,10.6807
24584382,1.85676,0.407996,0.183225,26.1,0.9,71.4,-1.61664,3.40093,11.0543
24597375,2.05703,0.467651,0.188552,27.15,2.7,72.45,-2.1148,3.86077,11.0806
24620217,2.24771,0.492152,0.24288,27.9,4.95,72,-2.39262,4.45713,12.1033
24633378,2.23066,0.332363,0.352602,27.3,7.65,71.55,-2.68003,3.9901,12.8027
24656203,2.5854,0.167247,0.534763,27.75,8.85,71.1,-3.04167,4.5194,12.441
24669377,2.55131,-0.02024,0.650877,28.2,12,70.35,-3.16143,5.51573,12.6997
24692209,2.61629,-0.226901,0.680704,28.05,14.4,69.45,-2.8381,5.76002,14.6253
24705382,2.27008,-0.253533,0.723314,28.2,15.6,69.3,-2.30161,6.06658,12.1177
24728203,2.41282,-0.34408,0.751011,26.4,18.3,68.85,-1.97829,5.59716,12.5919
24741382,2.16781,-0.241815,0.760599,26.85,21.15,67.5,-1.87051,4.48348,11.0878
24764203,2.37447,0.015979,1.06526,25.05,22.65,65.7,1.34121,7.68562,16.0886
24777378,0.427171,0.104396,0.948085,25.2,23.25,63.9,-0.550855,4.15775,20.0452
24790385,0.516653,-0.0852212,0.826645,24.45,25.8,63.9,-0.543669,2.70398,8.89159
24813209,-0.0873517,-0.112918,0.699879,24.3,24.15,64.05,-0.912502,1.82021,10.125
24825379,0.38243,-0.116114,0.671117,23.1,25.05,61.35,-1.22146,1.86812,9.82326
24848203,-0.579504,-0.100135,0.450607,23.25,24.9,63,-1.73878,1.80345,10.1322
24860378,-0.561394,-0.219444,0.28123,22.35,24,62.85,-2.2585,1.4897,10.034
24883203,-0.949151,-0.218379,0.0862864,20.1,21.9,62.55,-1.69807,1.30529,7.53362
24895377,-1.01094,-0.191748,-0.052198,22.8,19.5,60.75,-1.94715,1.30289,8.96105
24918221,-1.18564,-0.20027,-0.257794,21.45,19.8,62.55,-2.45011,1.48731,7.64379
24931379,-1.39869,-0.229032,-0.557133,22.2,18.3,61.2,-3.15424,1.98547,8.99218
24954203,-1.469,-0.213053,-0.869256,20.55,13.95,61.8,-3.02012,3.57816,9.67955
24967377,-2.02933,-0.108657,-1.05674,20.4,14.55,61.95,-1.36516,4.69663,10.0819
24990209,-2.11348,-0.0532632,-0.956607,19.95,12.15,60.75,0.205972,4.86668,9.67955
25003382,-2.29778,0.0575243,-0.664725,18.6,8.7,58.8,1.23104,4.67747,7.72522
25026203,-2.14118,0.0553937,-0.38243,19.95,4.35,59.25,0.0790356,4.79243,7.86413
25038382,-2.03679,0.0245011,-0.286556,19.5,2.55,57.6,-1.75555,4.95051,8.09884
25051379,-2.07727,0.00319579,-0.416518,18.6,1.2,59.4,-2.30161,5.27862,10.4005
25074203,-2.22108,0.108657,-0.576308,19.5,-0.3,58.2,-1.89207,5.73607,11.4758
25086378,-2.59285,0.252468,-0.649811,18.45,-2.55,55.05,-1.38193,5.89893,10.5801
25109209,-2.44585,0.289752,-0.614658,18.6,-5.7,54.9,-0.490979,5.87259,9.57896
25121379,-2.23812,0.368581,-0.451672,18.75,-6.6,52.65,0.716111,6.10251,9.38976
25144203,-2.25516,0.354733,-0.270577,19.95,-8.4,51.9,-0.0167651,6.36357,11.1405
25166209,-2.22214,0.253533,-0.24288,17.4,-9.9,50.25,-0.749641,6.25819,10.9393
25178379,-2.14864,0.226901,-0.333428,18.15,-11.4,49.5,-0.371228,6.18873,10.7813
25191377,-2.09324,0.186421,-0.360059,17.7,-13.65,50.25,-0.323328,6.16478,11.4854
25214242,-2.03039,0.0458064,-0.386691,17.4,-14.4,48.15,-0.63947,6.00431,10.9848
25227379,-1.98778,-0.0873517,-0.376038,17.25,-16.05,46.2,-0.0167651,5.58519,10.2544
25250203,-1.57872,-0.134223,-0.151268,16.5,-16.35,45.15,0.383203,5.13971,9.87595
25262377,-1.35821,-0.0649811,0.129962,19.05,-17.85,43.8,-0.119751,4.8068,10.6735
25285217,-1.17605,0.0415453,0.290817,17.55,-18.3,44.1,-0.938848,4.64873,10.8579
25298382,-1.14622,0.164051,0.300405,16.5,-20.55,42,-1.67651,4.25835,11.1693
25321203,-0.981108,0.229032,0.171508,17.85,-19.35,40.95,-2.74709,4.18889,11.5429
25333418,-1.061,0.236489,-0.140615,18.15,-20.7,41.85,-4.11943,3.85359,11.6483
25356204,-0.905475,0.0884169,-0.496413,18.6,-20.85,39.9,-3.89909,3.30034,11.38
25368373,-0.971521,0.04048,-0.691357,16.5,-21.15,38.1,-2.07648,2.78062,11.2148
25391203,-0.779773,0.0980043,-0.649811,16.35,-21.75,38.7,-0.5772,1.80345,9.98851
25403374,-0.533697,0.127832,-0.547546,17.4,-23.25,37.95,-0.296982,1.25978,10.0987
25426203,-0.560329,0.0958738,-0.482565,15.75,-22.35,37.5,-0.253872,0.881367,10.7717
25438375,-0.421845,0.0351537,-0.363255,15.75,-22.65,36,-0.378413,0.787961,10.7837
25461217,-0.338754,0.00852211,-0.280165,14.4,-21.9,37.8,-0.898132,1.1041,10.5274
25474378,-0.430367,0.0607201,-0.209857,15,-22.65,36.75,-1.28373,1.69088,11.3656
25487378,-0.241815,0.168312,-0.225836,15.3,-23.25,36.6,-2.37346,1.64538,8.56587
25510203,1.30069,-0.036219,-0.28123,14.85,-23.25,35.85,-3.21651,0.0670606,10.8795
25523377,-0.394148,0.302535,-0.403735,14.25,-24,35.85,1.20709,-1.13524,17.3005
25546203,0.0372843,0.189617,-0.160855,15.45,-24.15,35.4,0.392783,-1.49449,6.66183
25558378,0.385626,0.036219,0.0383495,16.2,-23.4,37.05,0.227527,-2.93629,10.1418
25581214,0.804275,0.00319579,0.294013,15.3,-23.25,36.3,0.00479004,-2.28485,10.3933
25593379,0.442085,0.0479369,0.358994,15.6,-23.25,35.55,-1.7771,-1.43701,11.2172
25616203,0.86819,0.00852211,0.315318,15.3,-23.7,36.9,-2.94108,-0.673001,10.2184
25628378,0.903344,-0.0351537,0.181095,16.5,-22.35,36.75,-3.38416,-0.60115,10.2089
25651209,0.915062,-0.199204,0.118244,16.2,-23.4,37.5,-2.67524,0.0119751,12.4793
25664379,0.76699,-0.314253,0.0969391,16.8,-20.85,37.05,-2.10762,-0.0790356,11.083
25687203,0.790426,-0.444215,0.0713727,15.6,-22.5,38.4,-1.98547,-0.359253,11.368
25699384,0.74675,-0.54222,0.0628506,16.2,-22.35,37.05,-1.30529,-0.0838257,11.6219
25722203,0.608266,-0.630637,0.056459,15.9,-21.45,38.4,-0.922083,0.421523,12.2279
25734377,0.575243,-0.570982,0.076699,14.85,-21,39,-1.20469,1.03944,13.0398
25757217,0.287621,-0.454868,0.0276969,14.7,-21.9,38.55,-0.790356,0.641865,12.0842
25770379,0.388821,-0.340885,0.0543285,14.85,-21,39,0.471819,0.409548,12.4171
25793203,0.254598,-0.218379,0.0149137,15.45,-20.85,39.15,0,0.893342,11.5141
25805377,-0.197074,-0.0756338,0.0351537,14.55,-22.2,39,-1.33163,0.383203,13.4158
25828209,0.241815,-0.135289,0.0575243,13.65,-21.6,39.6,-1.20709,-0.0263452,10.1226
25840382,0.166181,-0.0575243,0.0575243,13.8,-22.2,38.7,-0.840652,0.299377,11.9141
25863203,0.145941,-0.0245011,0.0596548,14.4,-22.35,39.6,-0.397573,0.301772,11.0351
25875382,0.118244,-0.00958738,0.0671117,13.5,-21,39.75,-0.742456,0.304167,11.4231
25898203,0.168312,0.0671117,0.0894822,13.5,-21,39,-0.941243,0.493374,11.3704
25910378,0.175769,-0.00213053,0.0426106,14.55,-21.45,37.35,-0.785566,0.536484,11.5716
25923674,0.0969391,0.0447411,0.0468716,14.4,-21.15,39.15,-1.14961,0.301772,11.0663
25946209,0.113983,0.0287621,0.052198,13.5,-20.25,40.8,-1.0083,0.344883,11.5932
25958382,0.1012,0.0671117,0.0575243,13.5,-20.25,39.45,-0.946033,0.632285,11.3561
25981203,0.0990696,0.0649811,0.0575243,14.85,-20.7,39.75,-0.902922,0.390388,10.9585
25993486,0.100135,0.072438,0.0532632,14.85,-20.7,40.05,-0.716111,0.457449,11.756
26016203,0.056459,0.0628506,0.0458064,13.35,-21.15,39.9,-0.855022,0.445474,11.0351
26028377,-0.015979,0.0735032,0.0266316,15.75,-20.55,39.15,-1.02746,0.505349,11.4423
26051204,0.0468716,0.0596548,0.0127832,14.25,-21,39.75,-0.996328,0.61073,11.3273
26064379,-0.0149137,0.072438,0.0170442,14.7,-21.15,38.85,-1.14242,0.474214,11.1214
26087203,0.04048,0.0394148,0.0276969,14.25,-19.95,39.75,-0.989143,0.598755,11.3633
26099378,0.0340885,0.056459,0.0245011,14.7,-21.9,39.9,-0.725691,0.670605,11.107
26122217,-0.0468716,0.0649811,0.0191748,14.7,-20.85,39.6,-1.0083,0.239502,11.186
26135378,0.0255663,0.0777643,0.02024,14.4,-21.15,40.2,-0.823887,0.55804,11.3417
26158203,-0.105461,0.0671117,0.00106526,15.3,-21,39.75,-1.38911,0.682581,11.0567
26170381,-0.0106526,0.076699,0.015979,14.25,-21,39.45,-1.16877,0.536484,11.1501
26193203,-0.0426106,0.0958738,0.00106526,14.85,-20.7,40.05,-1.06099,0.593965,11.0184
26205379,-0.0181095,0.106526,0.00958738,15.3,-21.45,39.75,-0.869392,0.273032,11.3177
26228203,-0.0617853,0.111853,0.00639159,15.3,-21.45,40.5,-0.969983,0.383203,11.0639
26240384,-0.00426106,0.100135,0,14.4,-20.55,40.95,-1.24541,0.529299,11.0567
26263203,-0.0383495,0.0713727,0.00745685,16.2,-19.35,38.85,-1.1065,0.524509,11.2962
26275377,-0.0106526,0.0745685,0.00532632,14.85,-19.5,40.5,-1.14003,0.546064,11.0902
26298217,0.0426106,0.072438,0.00639159,15.45,-21.15,39.6,-1.11368,0.565225,11.2531
26311379,0.0255663,0.0852212,0.0138484,15,-19.35,39.6,-1.17835,0.59636,11.3177
26334203,0.0223706,0.0585895,0.0170442,15.3,-21,40.5,-1.25499,0.543669,11.2483
26346377,0.00852211,0.0543285,0.0138484,14.25,-20.7,39.45,-0.993933,0.359253,11.1717
26369202,0.00852211,0.0426106,0.00319579,15.45,-21.6,40.95,-1.04902,0.60115,11.1788
26381377,0.00106526,0.0340885,0.00319579,16.2,-20.85,39.6,-1.17356,0.555645,11.1501
26404203,0.0415453,0.0266316,0.00639159,14.7,-20.1,39.15,-1.21188,0.706531,11.2172
26416376,0.00213053,0.0351537,0.00319579,14.55,-20.25,38.7,-1.19032,0.677791,11.1477
26439203,0.0245011,0.036219,0.00319579,13.8,-20.25,40.5,-1.19511,0.56762,11.3513
26451377,-0.0106526,0.0372843,0.00639159,15.45,-21.9,39.15,-1.15919,0.529299,10.9753
26464655,-0.0245011,0.056459,-0.00958738,16.35,-21,41.1,-1.12087,0.517324,11.1261
26487202,0.0276969,0.0788296,-0.00532632,15.3,-19.95,40.5,-1.18553,0.507744,11.0998
26499378,0.00106526,0.0628506,0.00213053,14.85,-21.75,39.75,-1.15919,0.63947,11.2842
26522204,0.00639159,0.0671117,0.00213053,15.3,-19.95,41.55,-1.29331,0.682581,11.1788
26534420,0.0170442,0.0884169,0.00745685,15.45,-20.85,39.15,-1.29092,0.452659,11.1645
26557203,0.0255663,0.116114,0.00958738,14.7,-19.8,40.95,-1.25978,0.546064,11.1453
26570378,-0.0213053,0.16192,0.00532632,15.6,-19.95,40.5,-1.51365,0.524509,11.0519
26593246,0.00745685,0.13955,-0.00106526,15,-20.55,40.95,-1.22865,0.603545,11.1764
26606379,0.0138484,0.0617853,0.00319579,15.45,-19.8,40.2,-1.49928,0.529299,11.2555
26629203,0.0191748,0.00958738,0.00319579,15.75,-19.35,38.85,-1.59508,0.488584,11.1812
26641377,0.0287621,0.00532632,0.00532632,15.6,-20.7,40.05,-1.18074,0.404758,11.1166
26664217,0.00852211,0.0191748,0,15.45,-21.6,40.65,-1.30768,0.62989,11.1094
26677379,0.0234358,0.0181095,0.00639159,15.6,-20.7,39.45,-1.29092,0.584385,11.2483
26700203,0.0127832,-0.00213053,0.00106526,15.45,-21.15,40.65,-1.14242,0.63468,11.0327
26712384,-0.00532632,-0.04048,-0.0117179,15.6,-20.7,40.05,-1.36995,0.440684,11.1381
26735203,0.0426106,-0.0458064,0.00319579,14.85,-20.25,40.05,-1.25978,0.359253,11.0782
26748376,-0.00106526,-0.0330232,0.00852211,14.85,-21.45,39.75,-1.12087,0.404758,11.1573
26761377,0.0330232,-0.0127832,0.00958738,15.6,-21.45,40.05,-1.22146,0.617915,11.1812
26784217,0.0213053,0.0170442,0.0149137,15.6,-19.95,40.5,-1.27176,0.668211,10.9872
26797379,0.036219,0.00319579,0.0138484,15,-20.1,39.9,-1.41306,0.764011,11.2459
26820203,0.0532632,-0.056459,0.015979,14.85,-19.95,39.45,-1.40588,0.728086,11.0878
26832384,0.015979,-0.0713727,0.0191748,14.55,-21.45,40.05,-1.18314,0.57241,11.0711
26855203,0.0788296,-0.0607201,0.0255663,15.3,-20.25,39.75,-1.33163,0.759221,11.2531
26867376,0.0756338,-0.0735032,0.0266316,14.85,-21,40.05,-1.36037,0.713716,10.901
26890203,0.0884169,-0.105461,0.0340885,14.4,-21.15,39.9,-1.42743,0.637075,11.0854
26903375,0.167247,-0.0777643,0.0553937,14.85,-21.75,40.8,-1.29331,0.771196,11.5453
26926203,0.152333,-0.0649811,0.04048,14.85,-21,40.8,-1.32445,0.174836,10.6304
26938376,0.224771,-0.0777643,0.0298274,15.3,-19.95,40.05,-0.917293,0.114961,11.1501
26961217,0.241815,-0.104396,0.0532632,16.8,-20.55,41.25,-1.20948,0.543669,10.7908
26974378,0.354733,-0.0884169,0.0490022,14.7,-20.1,39.6,-1.27655,0.340093,10.8579
26997203,0.459129,-0.015979,0.0841559,14.85,-18.75,41.1,-1.35079,0.522114,10.9226
27009378,0.626375,0.110787,0.138484,14.25,-19.5,40.8,-1.02507,0.428709,10.7286
27032209,0.793622,0.143811,0.14168,14.55,-19.95,41.1,-0.946033,0.759221,10.7789
27045379,0.910801,0.171508,0.138484,15.75,-19.35,41.7,-1.1065,1.0586,11.0567
27058377,1.14409,0.189617,0.120375,15.45,-18.6,41.7,-0.910107,1.2981,10.6663
27081217,1.23358,0.26312,0.104396,15,-19.35,42,-1.02267,1.47773,10.8723
27093676,1.50522,0.338754,0.0830906,15,-18.6,42.75,-1.31726,1.55437,10.8196
27116203,1.6682,0.378169,0.0703075,16.35,-17.4,43.2,-1.31247,1.35558,10.7741
27128377,1.81628,0.452737,0.0916127,16.2,-16.05,43.05,-1.22625,1.65735,10.5729
27151203,1.98991,0.465521,0.134223,15.3,-17.4,43.95,-1.76034,1.83938,10.8699
27163378,2.23279,0.577373,0.174703,16.35,-15.45,43.65,-1.71004,2.49322,10.6807
27186203,2.51189,0.537959,0.255663,15.75,-14.25,45.45,-2.05493,3.34824,12.2255
27198388,2.47567,0.399474,0.390952,16.65,-13.2,44.7,-2.84528,4.22002,14.072
27221203,2.41815,0.250337,0.490022,17.25,-12.75,46.2,-2.89797,5.1469,13.6289
27233378,2.33399,0.0330232,0.528371,18.15,-9.6,47.1,-3.02491,5.41274,11.8782
27256217,1.99844,-0.0830906,0.514523,16.5,-8.25,47.25,-2.92432,5.16366,13.114
27268378,1.91641,-0.164051,0.512392,16.8,-8.25,47.55,-2.07648,5.26425,11.5429
27291203,1.64051,-0.0351537,0.507066,17.1,-5.1,46.35,-1.33403,5.52292,9.63165
27303378,2.19764,-0.0106526,0.516653,17.1,-5.55,46.05,-1.22865,2.98898,13.2074
27327213,0.612527,0.0308927,0.651942,18.6,-3.45,48.3,2.13396,0.0742456,13.8493
27339379,0.971521,-0.246076,0.854342,18.15,-2.55,46.35,-1.59029,0.665815,12.3141
27362203,-0.740359,-0.290817,0.736098,17.1,-3.3,45.6,-2.47885,-0.0502954,9.01853
27374378,0.276969,-0.449542,0.693487,17.25,-3.45,45.9,-3.29076,-0.210762,11.0735
27397203,-0.727576,-0.289752,0.438889,16.5,-2.4,44.4,-2.85726,-0.193997,7.64379
27409377,-0.599744,-0.251402,0.247141,16.8,-2.4,43.05,-3.39135,-0.285007,11.6411
27432214,-1.09616,-0.15979,0.0458064,16.35,-3.3,43.95,-2.56267,0.172441,10.1131
27445382,-1.65862,-0.0660464,-0.0703075,16.65,-4.05,41.85,-1.98787,0.792751,13.8229
27468203,-2.01335,-0.0127832,-0.0426106,16.35,-4.05,39.75,-1.09452,0.883762,10.4891
27480377,-2.4043,0.0415453,0.0191748,16.8,-5.7,39.9,-1.24541,1.19032,10.7262
27503217,-2.25516,0.0106526,0.0255663,15.9,-6.15,37.95,-2.33514,1.77471,10.6352
27516379,-2.58327,0.0308927,-0.108657,15.3,-6.6,37.35,-2.81175,2.56267,11.2531
27529372,-2.55983,0.0830906,-0.239684,15,-8.25,34.35,-3.10395,3.01054,11.1429
27552203,-2.53213,0.144876,-0.40267,16.35,-7.35,33.45,-3.85598,3.94699,11.4614
27565379,-2.54598,0.153398,-0.656203,15.3,-7.35,32.1,-4.41881,4.81159,12.338
27588203,-2.61416,0.252468,-0.902279,14.7,-7.95,32.55,-3.61648,5.11816,12.4123
27601377,-2.44904,0.60294,-0.919323,15,-9,28.35,-0.665815,4.97925,11.7201
27624217,-2.27327,0.759533,-0.743555,13.65,-8.25,30.45,0.00718506,4.97685,11.8614
27637382,-2.23279,0.641289,-0.616788,14.55,-7.65,27.15,0.129331,5.19001,13.1978
27660203,-2.19551,0.502805,-0.480434,13.8,-7.65,27.45,0.56283,4.9553,12.5632
27672384,-2.09857,0.340885,-0.333428,12,-7.35,25.05,0.452659,4.36133,11.4686
27695204,-1.78645,0.234358,-0.148072,12.9,-7.5,25.95,0.296982,3.63564,10.2496
27707375,-1.46367,0.2024,0.00852211,12.75,-7.35,25.8,-0.146096,3.19975,9.86158
27730203,-1.08977,0.264186,0.147006,12.45,-8.4,24,-0.955613,3.13508,9.57896
27743380,-0.747816,0.297209,0.0862864,12.75,-7.65,25.05,-2.57465,3.33626,9.852
27756382,-0.513457,-0.0181095,-0.147006,11.55,-8.7,25.2,-3.69312,4.29427,12.6685
27779203,-0.614658,-0.333428,-0.44315,11.4,-7.35,24.75,-3.52786,4.92177,13.6697
27791377,-1.38804,-0.185356,-0.752077,11.55,-9,25.2,-2.81894,5.42472,16.4814
27814210,-1.47859,0.0266316,-0.860734,11.55,-8.25,23.85,-1.70046,4.17212,9.95259
27826375,-1.20694,0.185356,-0.678573,11.1,-7.95,24.15,0.361648,2.65608,7.93119
27849203,-0.435693,0.376038,-0.282295,10.2,-7.35,25.35,1.47533,2.28964,7.42824
27861380,-0.397344,0.423975,0.0223706,10.8,-7.2,23.85,-0.158071,2.49082,9.06882
27884203,-0.153398,0.15979,0.129962,10.95,-7.35,25.05,-1.59269,2.08367,10.5609
27896375,-0.218379,-0.0543285,0.0585895,10.2,-6.15,23.7,-1.96871,1.81303,10.889
27919217,-0.438889,-0.104396,-0.117179,12.15,-6.75,24.9,-2.18426,1.22625,10.6998
27931378,-0.204531,-0.0681769,-0.196009,9.75,-8.25,24.15,-1.47533,0.802332,8.66167
27954203,-0.0905475,0.015979,-0.165116,9.3,-6,24.9,-1.40827,0.354463,8.12279
27966377,0.297209,0.135289,-0.104396,9.6,-6.9,23.25,-2.07169,0.258662,9.83523
27989209,0.199204,0.201335,-0.158724,8.85,-6.6,24,-2.37825,0.749641,10.8962
28002382,0.0905475,0.144876,-0.257794,10.8,-6.45,23.85,-2.41178,0.749641,11.0878
28025203,-0.00639159,-0.0149137,-0.309992,9.75,-6.45,24.6,-1.70046,1.64538,9.80649
28037382,0.829841,-0.208792,-0.248207,10.5,-6,22.5,-4.20805,-1.77471,12.6446
28060203,0.105461,-0.0394148,-0.225836,9.75,-4.95,23.1,-3.25244,-2.38544,10.8914
28072378,0.654072,-0.127832,-0.234358,10.65,-6.6,24,-2.49322,-1.9711,9.15026
28095243,0.687096,-0.0585895,-0.245011,10.65,-6.15,24,-1.20469,-1.5376,9.51909
28108378,0.859668,-0.219444,-0.117179,10.2,-6.9,22.65,0.0359253,-1.75315,11.0399
28131203,0.78723,-0.327036,0.186421,10.05,-6,23.85,1.42264,-0.989143,11.5189
28143378,0.867125,-0.221575,0.334493,9.6,-4.8,22.65,-0.862207,-0.740061,9.852
28167213,1.15368,-0.327036,0.3036,10.2,-5.85,23.25,-3.54702,0.0814307,13.7104
28180379,0.632767,-0.355798,0.0990696,9.9,-5.55,22.35,-3.81048,0.768801,11.7417
28193377,0.815992,-0.410127,0.0149137,10.5,-5.25,22.8,-1.02507,0.941243,13.526
28216217,0.312122,-0.253533,0.0532632,8.7,-4.5,22.8,-0.225132,0.761616,14.1487
28229379,0.183225,-0.14168,0.1012,9.75,-4.95,21.75,-0.862207,0.0766406,11.004
28252203,0.418649,-0.129962,0.0798948,11.1,-5.25,22.8,-1.55437,0.476609,11.6698
28264377,0.0639159,-0.140615,0.0543285,9.6,-5.85,22.65,-0.943638,0.241897,11.7321
28287209,0.278034,-0.168312,0.123571,10.05,-3.75,22.8,-1.83938,0.110171,10.4076
28300382,0.435693,-0.155529,0.076699,10.2,-4.8,22.95,-1.50886,0.871787,12.0051
28323203,-0.126766,-0.0532632,0.0394148,9.15,-5.55,22.65,-0.902922,0.366438,12.6374
28335403,0.166181,-0.0351537,0.0479369,9.75,-4.95,22.5,-1.46096,0.608335,11.6052
28358203,0.00639159,-0.0127832,0.0170442,10.2,-5.1,21.9,-1.0083,0.332908,10.6208
28371378,0.0532632,0.0138484,0.015979,9.15,-5.85,21.9,-1.54239,0.452659,12.4147
28384377,-0.0170442,0.00319579,0.02024,9,-4.5,23.1,-0.811912,0.0718506,10.6376
28407209,0.052198,0.0181095,0.0394148,9.3,-6,21,-0.886157,0.251477,11.5333
28419379,-0.0117179,0.0468716,0.0330232,8.25,-3,23.1,-1.72202,0.136516,11.3872
28442203,0.0234358,-0.00319579,0.0127832,9.15,-6.6,21.6,-1.2526,0.150886,10.9705
28454426,-0.036219,-0.0127832,0.0117179,9.3,-4.5,23.1,-1.45378,0.184417,11.4662
28477203,0.015979,-0.0191748,0.00639159,8.85,-5.85,22.65,-1.37714,0.261057,11.1094
28489377,-0.0245011,-0.02024,0.00426106,9.75,-6,22.5,-1.43462,0.337698,11.6818
28512203,-0.00958738,-0.0127832,-0.00745685,9.3,-5.7,22.5,-1.18793,0.292192,10.9633
28525379,-0.0415453,-0.0191748,-0.00745685,10.2,-4.05,22.35,-1.14721,0.205972,11.2722
28548203,-0.00532632,-0.00106526,-0.00319579,8.25,-5.7,22.8,-1.42983,0.174836,10.9513
28560377,-0.00106526,-0.00532632,0.00852211,9.75,-5.25,21.45,-1.23104,0.0814307,11.2339
28583217,0.0106526,-0.0170442,-0.00106526,7.95,-4.95,20.4,-1.11847,0.249082,11.1597
28596379,-0.0351537,-0.0138484,0.00532632,10.5,-5.25,22.05,-1.36037,0.215552,11.0902
28619203,0.0415453,-0.0117179,0.00532632,9.3,-6.45,23.1,-1.27894,0.196392,11.2986
28631377,-0.0596548,-0.0117179,-0.00213053,10.95,-3.6,21.9,-1.24781,0.0335303,10.9034
28654210,0.0330232,0.0149137,0.00852211,8.85,-5.1,21.6,-1.34121,0.196392,11.3896
28667375,-0.00639159,0.0106526,-0.0117179,9.15,-6.15,22.35,-1.42504,0.0862207,10.913
28690203,0.0181095,0,-0.00852211,8.55,-5.1,20.85,-1.23823,-0.0311353,11.3393
28703380,-0.0149137,0.0127832,-0.00745685,7.95,-6,23.1,-1.20709,0.160466,10.992
28716382,-0.00639159,0.0245011,0.0170442,9.3,-4.5,21.45,-1.36995,0.328118,11.4135
28739203,0.0223706,-0.00213053,0.00532632,9.6,-6.15,22.65,-1.1999,0.170046,10.9417
28751378,-0.0287621,-0.00319579,0.00532632,8.85,-6.6,22.95,-1.33403,0.253872,11.3106
28774210,0.0532632,-0.0245011,0.0106526,9.75,-6,21,-0.900527,0.179626,11.1261
28786375,-0.04048,-0.0191748,0.00213053,9.9,-5.1,21.9,-1.04423,0.258662,11.186
28809203,0.0213053,-0.0308927,-0.00532632,9.15,-4.8,21.9,-1.2526,0.285007,11.0974
28821380,0.0436758,0.015979,0.015979,9.6,-4.8,21.9,-0.969983,0.316143,11.4447
28844203,0.00319579,0.00319579,-0.00319579,9.15,-6.9,21.3,-1.04902,0.0934058,11.0639
28857375,0.0234358,-0.0298274,-0.00319579,10.5,-4.95,22.8,-1.21667,0.179626,11.2172
28880217,0.00745685,-0.0436758,-0.00106526,10.05,-6,23.55,-1.28134,0.210762,11.1453
28893379,0.0106526,-0.0703075,-0.00852211,9.75,-4.95,22.8,-1.38193,0.359253,11.1908
28916203,0.0394148,-0.0841559,-0.00319579,9.15,-4.35,22.35,-1.27415,0.256267,11.107
28928377,0.0500674,-0.0788296,-0.00639159,9.15,-4.8,21.9,-1.14721,0.210762,11.186
28951209,0.0916127,-0.0745685,-0.00745685,8.85,-5.55,22.65,-1.02746,0.193997,11.21
28963382,0.0692422,-0.0458064,-0.00319579,9.15,-4.05,21.6,-1.0107,0.0934058,11.3249
28986203,0.092678,-0.0490022,-0.0117179,9.75,-4.95,22.05,-0.835862,0.174836,10.9082
28998382,0.0958738,-0.0266316,-0.00532632,8.85,-4.35,22.65,-1.05381,0.146096,11.7584
29021203,0.227967,-0.00852211,-0.00426106,9.15,-4.8,21.9,-0.64905,0.205972,10.9561
29034378,0.0351537,-0.113983,-0.24075,9.3,-4.95,21,-1.85854,-0.488584,10.7214
29047377,0.346211,-0.128897,-0.488956,9,-5.25,22.05,-5.52531,1.31487,12.5751
29070209,0.613592,-0.439954,-1.30282,8.85,-4.8,22.35,-5.11816,1.19032,9.30354
29082379,0.387756,-0.843689,-2.16781,9.9,-4.35,22.95,-4.55054,0.0431104,12.3069
29105203,0.550742,-1.17179,-2.73986,8.85,-4.8,21.3,-3.44404,-0.354463,12.9033
29117384,-0.0735032,-1.13344,-3.07861,7.35,-2.85,21.6,-3.42967,0.155676,11.8854
29140203,0.512392,-1.05142,-3.44826,6,-3.3,21.9,-3.98771,0.244292,11.9428
29162203,0.0553937,-0.826645,-3.92017,6.15,-1.95,21.75,-3.13748,0.857417,10.7789
29174423,0.237554,-0.765925,-4.1769,4.95,-2.85,21.9,-1.60227,0.392783,12.1752
29187379,0.0223706,-0.624245,-4.23656,6,-2.55,20.85,0.55325,0.328118,10.8771
29210203,0.127832,-0.613592,-4.18649,3.45,-0.3,22.35,1.37714,0,10.7789
29222377,0.0990696,-0.760599,-4.16412,3.6,2.4,21.75,1.46096,0.0886157,9.91187
29245217,0.0894822,-0.880974,-4.09062,4.35,3,19.95,1.14003,0.526904,10.9944
29258382,0.164051,-0.80747,-3.98941,1.5,3,21.75,0.701741,1.25739,10.7525
29281203,-0.0500674,-0.772317,-3.95533,4.2,3.6,21.9,-0.299377,1.64777,11.0088
29293416,0.0276969,-0.772317,-3.93402,3.3,6,20.7,-0.692161,2.3088,11.9907
29316204,-0.204531,-0.628506,-3.98302,3.6,5.7,21,-0.835862,2.76385,10.7429
29328371,-0.192813,-0.590156,-4.05972,3.6,8.25,21,-0.878972,2.87402,10.4843
29351209,-0.0937433,-0.607201,-4.03309,4.05,8.25,21,0.00718506,2.97701,9.58615
29363374,-0.0841559,-0.513457,-3.80193,4.35,9.3,22.8,1.18793,2.87163,9.79931
29386203,0.106526,-0.388821,-3.41417,4.8,10.05,21.75,1.84656,2.82133,10.3238
29398375,0.0671117,-0.191748,-2.93693,5.4,11.25,21.75,2.42615,2.53872,10.8579
29421217,0.0276969,-0.0436758,-2.48952,3.9,12.15,20.55,1.86333,2.48603,11.4567
29434378,-0.156594,0.00213053,-2.17527,4.5,12.9,21.6,1.346,2.23216,11.107
29457203,-0.113983,-0.0458064,-1.88658,6,12.15,20.85,1.25499,1.94476,10.5322
29469377,-0.0660464,-0.0191748,-1.60961,5.85,14.25,20.4,0.565225,2.27287,11.4423
29492209,-0.239684,0.167247,-1.44982,6,13.65,20.85,-1.02267,2.91474,12.0315
29504382,-0.232228,0.452737,-1.46474,6.75,13.65,21.6,-2.90276,2.61057,9.59333
29527203,-0.140615,0.801079,-1.60748,7.8,14.4,22.65,-3.47278,2.40939,10.6759
29539382,-0.116114,0.999218,-1.6682,7.05,13.65,22.95,-1.90404,1.80584,9.68913
29562203,-0.0170442,0.922519,-1.5702,8.1,14.7,21.6,-0.65384,1.33163,9.68195
29574378,-0.0351537,0.771251,-1.26021,7.8,12.9,22.65,1.28852,1.0107,9.68195
29597217,-0.0170442,0.782969,-0.770186,7.95,14.85,22.5,3.02251,0.632285,8.11561
29610378,0.551807,0.793622,-0.164051,8.7,15.3,22.8,2.5028,0.158071,4.66199
29623377,0.619984,0.873517,0.276969,7.8,16.2,22.35,1.89925,0.292192,6.89894
29646203,5.11327,-1.62559,0.644485,8.55,15.9,21.9,-1.57592,-7.42696,40.5645
29658384,-0.442085,-0.428236,-0.322775,7.95,16.05,20.7,1.30529,7.6473,-37.9131
29681203,0.0639159,-0.406931,-0.156594,6.75,13.65,22.65,-7.33595,-2.39502,40.5645
29694377,-2.36702,0.464455,-0.0213053,8.25,15.6,22.5,0.907712,2.99377,-17.0776
29717217,1.66075,-0.528371,-0.168312,7.65,14.85,22.8,0.349673,-0.392783,30.1163
29730379,-1.79497,0.349407,-0.178964,8.55,15.45,21.6,1.64059,0.409548,-3.24158
29753203,1.31241,-0.00319579,-0.0692422,7.35,13.2,22.65,-1.98547,0.354463,22.548
29766377,-0.765925,0.533697,-0.0191748,8.25,14.25,21.75,0.476609,1.17835,3.33275
29789209,0.753142,0.109722,-0.0543285,9.3,14.85,21.75,-2.83091,0.225132,15.6072
29801382,-0.627441,0.186421,-0.04048,7.95,15.6,23.85,-1.33163,0.340093,8.30242
29824203,0.351537,0.0223706,-0.00639159,7.35,15.45,22.35,-1.36037,0.0598755,13.2457
29836382,-0.288687,0.142745,-0.00958738,9.9,14.7,22.35,-0.531694,0.143701,9.54783
29859203,0.1012,0.0553937,-0.0181095,8.85,13.95,22.95,-1.06339,0.122146,12.2326
29871378,-0.122505,0.0511327,-0.02024,8.1,14.7,22.35,-1.25739,0.00479004,10.319
29894223,0.015979,0.0127832,-0.0191748,7.65,15.6,22.5,-1.39869,0.0622705,11.5117
29907378,-0.0596548,0.0223706,-0.00213053,7.35,15.9,23.7,-1.22625,0.289797,11.2339
29920377,-0.00532632,0.0149137,-0.00745685,8.55,14.4,23.7,-1.21906,0.438289,11.2243
29943203,-0.0340885,0.0223706,0.00319579,8.7,15.6,21.75,-0.962798,0.148491,11.0926
29955425,-0.0106526,0.0213053,0.0117179,8.25,14.55,23.1,-1.04183,0.268242,11.2986
29978203,-0.015979,0.0298274,0.00639159,8.1,14.4,22.65,-0.969983,0.637075,11.1764
29991377,-0.0308927,0.0266316,0.0106526,9,14.85,22.05,-0.960403,0.294587,11.1549
30014229,-0.00745685,0.0415453,0.02024,8.25,14.85,23.55,-0.799937,0.227527,11.2962
30027379,-0.0490022,0.0426106,0.015979,9.15,14.4,22.65,-1.10889,0.890947,11.7057
30050203,-0.0575243,0.036219,-0.00213053,8.85,14.7,21.6,-1.08015,0.514929,11.2435
30062377,-0.0639159,0.0276969,-0.00213053,8.1,13.95,23.7,-0.701741,0.205972,11.1621
30085217,-0.056459,0.0106526,-0.00426106,8.25,15.3,23.55,-1.00112,0.182021,11.2172
30098382,-0.0649811,-0.00532632,-0.00852211,7.95,14.55,22.8,-0.984353,0.318538,11.3345
30111377,-0.076699,0.00426106,-0.00958738,8.1,15.45,23.25,-1.0586,0.280217,11.3034
30134240,-0.0415453,0.00213053,0.00426106,7.65,15.6,22.8,-0.979563,0.177231,11.1022
30147378,-0.0394148,-0.00639159,-0.00319579,8.1,13.2,21.9,-1.02028,0.299377,11.1094
30170203,-0.0575243,-0.0340885,-0.0127832,7.05,14.7,21.6,-0.893342,0.289797,11.5285
30182377,-0.1012,-0.0468716,-0.0255663,7.65,14.85,22.8,-0.924478,0.344883,11.574
30205217,-0.0894822,-0.0468716,-0.00639159,9.15,13.95,22.95,-1.06339,0.150886,11.3441
30218382,-0.0905475,-0.0585895,-0.015979,8.85,14.4,22.35,-0.989143,0.0311353,10.8316
30241203,-0.0596548,-0.0660464,-0.00958738,7.05,15.15,22.95,-1.11847,0.0263452,11.0663
30253417,-0.0383495,-0.0617853,0.00745685,8.1,15.15,22.65,-1.07536,-0.0215552,10.5992
30276210,0.0266316,-0.0500674,0.0234358,8.7,14.55,23.1,-1.14003,-0.0167651,11.2052
30289371,0.0319579,-0.0383495,0.0149137,7.35,14.7,23.25,-1.02746,0.191602,11.1621
30312203,0.0245011,-0.0138484,0.02024,7.65,14.55,21.45,-0.938848,0.148491,11.2124
30325379,-0.0298274,-0.0234358,0.00426106,7.95,14.25,23.1,-1.03704,0.0646655,11.1764
30338373,-0.00745685,-0.0117179,0.00745685,7.8,14.7,22.95,-1.49928,-0.0981958,10.8435
30361203,0.0894822,-0.0276969,0.0287621,7.95,14.85,23.1,-1.15679,0.189207,11.2148
30373413,0.0479369,-0.0234358,0.0255663,9,16.35,23.85,-0.893342,0.335303,11.4591
30396210,0.0319579,-0.00532632,0.0191748,7.2,14.25,22.5,-0.795147,0.0958008,11.0256
30409371,0.0351537,-0.00213053,0.0181095,7.65,14.55,23.1,-0.900527,0.208367,11.3728
30432203,0.00745685,-0.00639159,0.00958738,7.65,15.6,22.5,-1.04902,0.174836,11.1214
30445379,0.02024,-0.00745685,0.0127832,8.55,13.65,22.65,-1.13524,0.136516,11.0495
30468203,0.0479369,-0.02024,0.0234358,7.8,14.7,23.25,-1.09213,0.208367,11.3872
30480377,0.0234358,-0.0181095,0.0213053,8.55,15.9,21.3,-0.783171,0.277822,11.0447
30503217,0.00639159,-0.0223706,0.0149137,8.25,14.85,23.55,-1.02507,0.287402,11.4495
30516379,0.0276969,-0.0191748,0.0106526,7.95,13.8,22.05,-0.926873,0.215552,11.0016
30539203,0.0266316,-0.0170442,0.0127832,8.85,15.15,22.35,-0.936453,0.251477,11.4854
30551379,0.0127832,-0.02024,0.0127832,7.95,14.85,22.5,-0.969983,0.292192,11.0208
30574210,0.0117179,-0.0330232,0.0117179,9,14.25,23.55,-0.998723,0.174836,11.186
30587375,0.04048,-0.0468716,0.0223706,6.9,14.85,22.05,-0.888552,0.277822,11.2124
30600377,0.04048,-0.0394148,0.00426106,7.2,14.25,22.05,-0.684976,0.0646655,10.695
30623217,0.0149137,-0.0500674,0.00532632,7.95,15.3,22.05,-1.08973,0.126936,11.4495
30636379,0.0884169,-0.00213053,0.0287621,7.35,14.4,23.25,-1.22386,0.00958008,10.7118
30659203,0.0585895,-0.00319579,0.0415453,7.8,14.4,21.6,-1.3484,0.0718506,11.0423
30671379,0.162985,0.0394148,0.0703075,7.35,13.95,22.35,-0.922083,0.275427,11.3561
30694210,0.169377,0.0415453,0.0458064,8.25,14.25,22.05,-0.684976,0.253872,10.8771
30707375,0.192813,0.0628506,0.0394148,9,12.75,21,-1.00351,0.668211,11.7105
30730203,0.210922,0.0639159,0.036219,9,14.85,22.8,-1.40348,0.543669,10.901
30743380,0.298274,0.0383495,0.0500674,6.45,15.3,21.75,-1.18793,0.354463,11.0902
30766203,0.496413,0.0841559,0.052198,7.8,14.4,22.95,-0.979563,-0.0910107,10.2639
30778375,0.712662,0.123571,0.0468716,7.65,15.3,23.1,-0.474214,-0.543669,10.4819
30801217,1.30069,0.388821,0.162985,7.8,16.2,21.3,-0.114961,-0.900527,10.6759
30814378,1.70975,0.590156,0.26312,7.8,14.7,21.3,0.852627,-0.754431,10.4484
30827377,2.06022,0.491087,0.205596,6.9,15.3,21.45,-0.876577,0.768801,12.5919
30850203,2.15929,0.486826,0.235423,8.25,15.6,20.4,-1.54958,1.91123,12.5272
30863382,2.43733,0.358994,0.289752,6.15,16.8,21.45,-1.12087,3.46559,15.1162
30886203,1.59364,0.268447,0.369647,7.05,16.2,19.8,-2.86923,3.87035,17.9496
30898378,1.92067,0.0213053,0.454868,8.1,15.9,20.25,-3.00814,4.67029,8.73113
30921217,2.64718,-0.210922,0.469782,8.7,16.05,19.35,-1.24062,6.73719,13.7535
30934378,1.23677,-0.0639159,0.56246,9.6,16.95,18.15,-0.802332,4.76848,21.0631
30957203,1.23145,-0.00745685,0.870321,8.55,17.4,18.45,0.579595,3.00575,10.4939
30970379,0.772317,-0.0948085,1.04929,8.85,15.9,19.5,-0.184417,2.18186,10.7765
30993209,1.39869,-0.291882,1.1409,8.1,15.9,19.5,-1.13763,2.29922,10.64
31005379,0.598679,-0.295078,0.983239,7.95,16.35,18.3,-1.40588,1.40109,10.0628
31028203,0.762729,-0.311057,0.809601,7.05,15.9,18.15,-1.88967,0.462239,10.2783
31041384,0.454868,-0.272708,0.551807,7.95,14.85,18.6,-1.86812,-0.150886,8.30721
31054379,0.209857,-0.246076,0.307861,6.9,16.35,17.55,-2.01421,-0.814307,10.1777
31077203,-0.0223706,-0.190682,0.106526,7.65,16.05,17.25,-1.92081,-1.35798,9.35623
31089377,-0.416518,-0.137419,-0.100135,7.05,17.7,19.5,-1.69088,-1.78668,9.33707
31112210,-0.548611,-0.072438,-0.221575,7.95,17.1,18.6,-1.60466,-1.79147,9.3682
31124379,-0.910801,-0.0298274,-0.333428,6.75,16.95,18.75,-1.55437,-1.31726,9.95977
31147203,-1.19097,-0.036219,-0.40267,5.7,17.4,18.45,-1.57592,-0.960403,10.1059
31159382,-1.30601,-0.0106526,-0.419714,7.8,18.75,19.2,-1.69567,-0.462239,10.525
31182203,-1.7236,0.056459,-0.50387,7.35,18,18.75,-2.2609,0.411943,12.0315
31194378,-1.91321,0.118244,-0.62531,7.8,19.5,20.55,-2.57225,1.06578,11.6315
31217217,-2.10177,0.16192,-0.779773,8.1,18.45,23.25,-2.69679,1.51605,10.6759
31230378,-2.05489,0.191748,-0.90867,6.3,19.5,22.95,-2.33754,1.86333,10.731
31253203,-2.01761,0.226901,-0.948085,7.05,20.25,24,-1.57832,2.19384,10.4172
31265378,-1.87487,0.270577,-0.877778,7.35,18,24,-1.37235,2.29443,10.1538
31288209,-1.60748,0.3036,-0.809601,7.2,19.8,24.6,-1.46815,2.69679,11.0303
31301379,-1.42426,0.325971,-0.80747,6.9,18.3,26.7,-1.60227,3.81527,14.1175
31324203,-2.01974,0.367516,-0.82771,8.55,17.7,27.45,-1.34361,3.92304,16.3617
31336384,-2.19231,0.316384,-0.790426,8.85,18.45,28.5,-0.708926,3.1255,13.7128
31359203,-2.31269,0.252468,-0.72438,8.7,17.55,29.1,-0.689766,2.71356,12.3141
31372377,-1.9995,0.158724,-0.589091,8.85,16.65,30.6,-0.56283,2.27766,11.3082
31395244,-1.86741,0.140615,-0.494283,7.65,15.3,31.95,-0.828677,2.46448,11.4183
31408379,-1.57766,0.126766,-0.381365,8.7,14.55,31.2,-0.785566,2.26808,11.1788
31421377,-1.3891,0.151268,-0.256729,7.8,14.4,32.4,-0.170046,2.20102,12.0554
31444203,-1.62133,0.247141,-0.0575243,8.55,11.85,33.15,1.03225,2.2609,14.005
31456397,-1.67673,0.350472,0.259925,9.9,12.15,32.4,1.82261,1.79866,12.3189
31479203,-1.77473,0.403735,0.606135,9.9,12.15,33.15,1.66693,1.49449,10.5849
31492378,-1.39656,0.334493,0.867125,9.3,12,34.35,0.371228,1.73878,8.75987
31515243,-1.14303,0.166181,0.916127,8.55,10.35,33.75,-1.45617,2.1148,8.63054
31528378,-0.817058,-0.0426106,0.830906,9.3,9.75,33.9,-2.3064,2.90037,10.4172
31551203,-0.806405,-0.0852212,0.666856,10.5,8.25,33.9,-2.18665,2.28724,7.96712
31563378,-0.44528,-0.00213053,0.54222,8.85,9.6,34.8,-2.86684,2.23934,8.53234
31586213,-0.0820254,0.0319579,0.298274,7.65,9.3,34.35,-3.753,2.67524,7.46895
31598379,0.166181,0.152333,-0.0798948,9.6,9.15,34.5,-1.21667,5.8199,3.3112
31621203,1.51587,-0.32171,-0.36219,9.6,7.35,33.45,-4.49066,1.60706,2.46336
31633414,1.67566,-0.0266316,-0.331297,9,7.95,33.9,-5.76721,-3.25723,20.3901
31656209,-0.138484,0.378169,-0.246076,8.1,8.85,34.2,-2.76385,-6.53601,12.3428
31668371,1.59896,-0.333428,0.12144,8.55,9.9,33.75,-0.268242,-3.86796,0.214437
31691205,2.45117,-0.335558,0.214118,8.7,9,33.6,0.383203,1.17356,20.9266
31704375,0.354733,0.0149137,0.0820254,8.25,11.55,34.65,-0.821492,1.6358,13.8684
31717379,1.32945,-0.0245011,0.0809601,7.35,11.85,34.2,-1.78668,0.819097,15.0492
31740203,0.0394148,0.168312,0.0479369,7.65,11.55,33.6,-2.53872,0.428709,13.7918
31753413,0.748881,0.138484,-0.00532632,8.1,11.4,33.45,-3.21651,-0.481399,9.86637
31776210,0.0436758,0.339819,-0.0713727,7.95,12,34.35,-1.15919,0.493374,18.3831
31789371,-0.345146,0.5827,0.056459,6.9,11.25,34.35,1.01549,-0.910107,8.01023
31812206,0.313188,0.504935,0.196009,7.35,12.15,34.8,-1.35558,-0.991538,14.5151
31825378,-0.0319579,0.437824,0.153398,8.1,10.35,34.2,-3.45601,0.00239502,8.02699
31848203,-0.287621,0.125701,0.0117179,7.65,11.25,33.6,-3.53265,-0.787961,12.0602
31860377,0.437824,-0.207727,0.0735032,8.55,11.85,33.45,-2.52914,-1.09692,8.43175
31884224,0.0852212,-0.314253,0.0372843,7.65,11.25,33.6,-2.07648,-1.08255,9.98851
31896379,0.367516,-0.324906,0.0756338,8.1,11.85,34.8,-0.981958,-0.332908,13.6768
31909372,0.264186,-0.175769,0.0788296,6.9,12.75,32.55,-0.373623,-0.488584,8.43654
31932207,0.46339,-0.00426106,0.0852212,8.25,12,32.25,-1.76513,0.263452,15.0085
31945379,-0.0916127,0.14168,0.0756338,7.95,11.55,33.9,-2.30161,-0.270637,9.31791
31968203,0.311057,0.0468716,0.0319579,7.8,12.15,34.2,-2.55549,-0.802332,10.6615
31980377,0.492152,-0.0170442,0.0553937,7.35,11.85,32.7,-2.00942,-0.0119751,10.5466
32003217,0.245011,0.0276969,0.00532632,6.9,12.3,33,-1.23583,0.196392,14.1774
32015379,0.243946,-0.0351537,-0.0372843,7.65,13.5,33.9,-1.49928,0.119751,9.22929
32038203,0.339819,-0.176834,0.0234358,6.15,13.05,33.6,-2.4549,-0.385598,10.8363
32050379,0.387756,-0.367516,-0.00852211,7.95,13.05,33.6,-2.42855,-0.340093,10.0173
32073210,0.595483,-0.363255,-0.02024,7.2,12.75,33.6,-1.86333,0.526904,10.8459
32085379,0.219444,-0.355798,-0.0127832,5.85,14.55,33.9,-2.27287,0.340093,12.908
32108203,0.346211,-0.235423,-0.00532632,5.85,13.05,32.25,0.232317,0.64905,14.1415
32120382,-0.0394148,-0.0308927,-0.056459,6.3,13.65,33.45,-0.866997,0.819097,11.5549
32143203,-0.131028,0.0607201,-0.0255663,7.95,13.5,33.3,-1.69807,0.0790356,11.7896
32156378,-0.0607201,0.0479369,-0.0127832,7.05,15.45,33.75,-1.7795,-0.368833,10.4579
32179217,0.00213053,0.0255663,-0.00213053,7.65,13.5,31.95,-2.10762,0.0670606,10.9561
32192378,0.0436758,-0.0308927,0.00639159,6.75,13.65,32.1,-1.57832,-0.0263452,10.8148
32205376,0.0372843,-0.0617853,-0.00532632,7.05,13.65,33.75,-1.74597,0.0311353,10.8004
32228203,-0.0713727,-0.0777643,0.0191748,6.3,13.65,32.7,-2.23216,-0.0574805,10.9705
32240384,0.153398,-0.191748,0.00213053,6,13.95,31.65,-1.73399,-0.0550855,10.1849
32263203,0.134223,-0.26312,0.0245011,7.05,12.45,33.15,-1.48731,-0.0670606,10.137
32275377,0.243946,-0.361125,0.0149137,6,13.2,33.45,-1.3939,0.0814307,10.8148
32298217,0.217314,-0.377104,0.0319579,6.9,13.5,32.55,-0.783171,0.493374,11.5477
32311379,0.04048,-0.256729,-0.0458064,6.15,14.85,33,-1.5879,0.632285,11.7991
32334203,0.266316,-0.132093,0.0319579,7.65,15.3,31.95,-1.7795,0.380808,12.2566
32346377,0.1012,-0.0873517,0.0340885,6.3,14.4,33.15,-1.45138,0.373623,10.9034
32369209,0.113983,-0.112918,0.0372843,6.15,14.25,33.3,-1.16637,0.222737,11.6315
32382382,0.0532632,-0.118244,0.0607201,4.35,13.05,31.5,-1.62382,0.366438,10.6471
32405203,0.135289,-0.2024,0.072438,6.75,14.4,31.05,-1.84896,0.773591,11.7512
32418382,-0.00958738,-0.129962,-0.00958738,5.4,13.05,31.95,-2.44053,1.07536,10.6711
32441203,-0.00532632,0.0138484,0.0340885,5.25,14.4,32.4,-2.10762,0.273032,12.8338
32453378,0.187487,-0.0223706,0.0330232,6.3,13.95,32.1,-0.785566,0.301772,9.8041
32476217,-0.125701,-0.0735032,-0.0308927,5.85,13.05,32.25,-1.52563,0.270637,11.9428
32488378,0.126766,-0.0372843,0.0106526,5.4,12.75,34.35,-1.1544,0.368833,11.1238
32511203,-0.115049,-0.0703075,-0.0287621,6.75,13.2,33.15,-1.32205,0.354463,11.1932
32523378,-0.0468716,-0.052198,-0.02024,5.85,13.8,32.25,-2.36149,-0.160466,10.7549
32547213,0.0394148,-0.0149137,0.0106526,5.1,14.25,31.5,-2.2609,0.311353,11.5812
32560379,0.056459,0.0394148,0.0308927,5.1,12.3,32.55,-1.91841,0.325723,10.6424
32573377,0.0245011,0.0490022,0.00958738,3.45,14.4,32.1,-1.85135,0.0119751,10.9082
32596217,0.0735032,0.052198,0.0287621,4.35,13.8,31.2,-1.19511,-0.0814307,10.8292
32609379,0.13955,0.0138484,0.0308927,5.1,13.5,32.55,-1.02986,-0.0718506,10.9801
32632203,0.171508,0.0468716,0.0330232,4.8,13.8,31.5,-1.27415,0.131726,10.6903
32644377,0.172573,0.0372843,0.0351537,5.4,13.8,32.25,-1.33882,0.165256,11.4207
32667209,0.135289,-0.056459,0.0266316,4.95,14.4,32.1,-1.47294,0.471819,11.198
32680382,0.273773,-0.0894822,0.0394148,5.25,13.2,31.65,-1.62143,0.529299,11.0591
32703203,0.331297,-0.126766,0,5.4,13.8,32.55,-1.03944,0.167651,10.7549
32715404,0.474043,-0.0713727,0.0276969,7.05,14.7,33.45,-0.821492,0.258662,11.6387
32738203,0.581634,-0.0191748,0.00532632,5.4,14.55,32.55,-1.04662,0.227527,10.7741
32750378,0.871386,0.0330232,0.0287621,5.1,13.8,31.2,-0.0550855,-1.22386,10.3597
32773229,1.27299,0.339819,0.152333,5.25,15.15,31.35,0.186812,-0.296982,10.216
32786378,2.03359,0.675378,0.223706,4.8,14.25,32.25,-0.5772,-0.0263452,9.68674
32799373,2.28819,0.739293,0.145941,5.25,14.4,30.6,-0.359253,0.158071,10.5825
32822203,2.99446,0.855407,0.227967,6.75,15.9,30.3,-1.42743,1.06099,10.8028
32835417,3.31936,0.822384,0.258859,5.25,16.95,30.3,-1.07776,1.59029,11.1621
32858203,3.89674,0.872451,0.34195,4.95,18,29.55,-2.24653,2.29922,11.6986
32871375,4.18329,0.871386,0.477238,4.8,19.05,28.05,-2.72314,4.02842,15.9617
32894244,3.70392,0.64555,0.500674,5.4,19.35,28.35,-1.9711,5.41993,12.9056
32907379,4.09381,0.103331,0.640224,6,19.5,27.15,-3.17819,5.92049,14.4744
32930203,3.96278,-0.234358,0.709466,6,20.7,25.35,-3.39853,7.58742,15.1713
32942377,2.59179,-0.369647,0.675378,5.7,22.2,24.75,-2.68961,7.17308,18.0334
32965223,2.11135,-0.330232,0.632767,5.7,22.95,24.3,-1.39869,5.93007,10.5921
32978382,2.15503,-0.052198,0.851146,4.8,22.65,23.1,1.41306,1.81542,10.4508
32991377,1.66927,0.951281,2.62481,5.4,22.65,22.8,2.50998,8.65081,18.2298
33014213,-1.97074,0.932106,2.37661,6,22.5,22.65,-1.18793,1.41546,14.9414
33026377,0.405866,-0.137419,2.08898,5.1,20.1,23.1,-4.26792,0.972378,4.2237
33049203,-1.15901,-0.417584,1.30708,4.8,20.55,24.9,-4.6631,0.538879,6.51094
33061378,0.24075,-0.614658,0.716923,3.6,19.8,24.15,-4.64155,0.570015,8.36229
33084217,-1.19523,-0.298274,0.0117179,4.05,20.1,24.15,-4.27272,0.387993,7.83299
33096379,-0.692422,-0.204531,-0.478304,3.45,18.45,25.05,-4.32062,0.296982,10.6663
33119203,-1.43278,-0.056459,-0.876713,4.35,19.05,25.95,-3.0273,1.04902,8.32637
33132389,-1.60855,-0.0969391,-1.08018,3.9,17.7,26.1,-2.38783,1.40348,11.4255
33155203,-1.7971,-0.0873517,-1.10574,4.05,17.55,27.75,-0.981958,1.85375,9.02092
33167375,-2.1497,-0.0372843,-1.04822,4.5,17.7,29.25,-0.622705,2.47166,10.8866
33190203,-2.13266,-0.0117179,-0.900148,2.1,14.7,28.5,-0.787961,3.27399,11.8111
33203381,-2.69512,0.0308927,-0.826645,3.3,14.55,27.3,-1.09692,3.96615,12.4219
33226203,-2.85384,-0.0117179,-0.747816,2.85,13.2,27.9,-1.54958,4.41881,12.4698
33239375,-2.99552,-0.0490022,-0.759533,2.55,13.5,27.75,-1.71962,4.65831,10.6783
33252388,-2.91456,-0.0234358,-0.745685,2.25,11.25,28.05,-1.75315,4.94572,11.4447
33275204,-2.76649,0.0511327,-0.684965,4.05,11.25,27.75,-1.2502,5.07265,10.8675
33297203,-2.80271,0.0905475,-0.634898,3.9,10.65,28.2,-1.4921,5.19001,11.701
33309377,-2.60244,0.135289,-0.578439,4.2,10.35,28.2,-1.57113,5.36484,12.2901
33322380,-2.71323,0.196009,-0.585895,4.5,8.85,30,-1.96392,5.52292,12.2063
33345203,-2.67701,0.190682,-0.626375,3.9,8.4,30,-1.83698,5.36484,12.8697
33358375,-2.58753,0.197074,-0.651942,4.8,6.75,28.8,-1.40588,5.07744,12.0722
33381217,-2.54385,0.115049,-0.668986,7.35,6.15,29.55,-1.62143,4.79243,12.0123
33394379,-2.28819,0.0639159,-0.608266,8.55,6.15,28.95,-1.28613,4.55533,11.5716
33417203,-2.1742,0.04048,-0.552872,8.85,4.35,28.95,-1.12805,4.19128,10.992
33429377,-1.90895,0.0596548,-0.417584,7.95,4.95,28.35,-0.495769,3.77216,10.5537
33452210,-1.6959,0.117179,-0.251402,9.15,4.8,26.85,-0.6251,3.6069,9.98851
33464379,-1.32093,0.143811,-0.112918,9.15,4.05,28.5,-1.28373,4.26074,11.6052
33487203,-1.64157,0.22264,-0.0276969,11.7,4.35,29.25,-1.22865,4.8571,12.9751
33499382,-1.68738,0.309992,0.135289,12,2.85,29.25,-0.692161,4.41163,10.7645
33522203,-1.42745,0.447411,0.378169,11.85,2.7,25.95,0.155676,3.61169,7.94796
33534378,-0.939563,0.481499,0.633832,12.75,3.3,27.9,0.102986,2.74948,8.48444
33557217,-0.874582,0.541154,0.835167,11.85,1.95,26.25,-1.08734,2.97222,9.45921
33570378,-0.690291,0.332363,0.708401,12.15,2.7,26.7,-3.48475,3.20933,8.9371
33593203,-0.410127,-0.0117179,0.432497,12.15,0.9,26.7,-3.95657,4.35654,10.8004
33606378,-0.879908,-0.128897,0.0713727,12.45,2.55,25.35,-3.45601,4.7134,8.58982
33629209,-0.167247,-0.0681769,-0.153398,12.6,0.9,25.2,-2.55309,4.17212,4.88952
33641379,1.97393,-0.702009,-0.703074,13.35,1.95,25.65,0.0670606,0.0335303,0.949708
33654377,2.52787,-0.60294,-0.735032,12.6,1.95,25.65,1.55437,-5.20438,22.5456
33677217,-0.26099,-0.154463,-0.429302,12.15,1.2,26.7,0.361648,-7.6952,1.71132
33689379,3.41311,-0.393083,0.370712,10.65,1.35,26.4,0.958008,-3.43925,3.34473
33712203,2.39152,0.140615,0.638093,10.95,2.85,26.1,-1.16158,3.13508,27.1656
33725377,0.86819,0.22264,0.482565,13.5,2.1,25.35,-4.64155,2.72074,10.1705
33748209,1.5425,-0.275903,0.0585895,12.45,2.85,24.75,-5.78158,1.03225,18.2178
33761382,0.44528,-0.230097,0.00106526,11.85,2.7,24.9,0.205972,0.440684,10.5753
33784203,1.07485,-0.436758,0.145941,11.7,1.8,24,-2.83331,-0.0886157,12.8601
33796399,0.506001,-0.459129,-0.00958738,12.45,1.8,25.05,-2.59381,1.47294,11.9333
33819203,0.453803,-0.452737,0.015979,12.45,2.55,24.75,-0.524509,-0.57241,12.1057
33832378,0.619984,-0.406931,0.0735032,11.1,2.7,25.2,-0.285007,0.524509,10.7645
33855240,0.186421,-0.36432,0.0777643,10.8,1.95,25.65,-2.01182,-0.376018,12.5823
33868378,0.789361,-0.415453,0.106526,11.55,3.45,24.15,-1.36756,0.0718506,10.0268
33881377,0.397344,-0.275903,0.0628506,10.2,3.3,24,-1.16877,0.387993,13.2673
33904203,-0.0458064,-0.216249,0.116114,12.15,3.45,24.9,-1.24541,-0.203577,11.0064
33917384,0.451672,-0.229032,0.109722,11.55,3,24.6,-1.825,0.768801,11.313
33940203,0.0500674,-0.150202,0.0575243,11.4,3.3,24.75,-1.32205,0.584385,12.5775
33953377,0.239684,-0.112918,0.0500674,10.5,3.75,25.65,-0.529299,0.462239,11.1812
33976217,-0.00426106,-0.0937433,0.00745685,10.8,1.95,24.9,-0.479004,0.411943,11.6794
33989379,0.270577,-0.168312,-0.0319579,9.75,1.95,25.2,-0.65384,0.62031,10.707
34012203,0.0671117,-0.0969391,-0.0447411,9.75,2.7,24.6,-1.42743,0.347278,12.3069
34024377,0.253533,-0.173638,-0.0958738,12.15,1.65,24.15,-1.07297,1.59029,10.9968
34037679,0.11931,0.0245011,-0.0106526,10.95,3.6,24,-0.871787,0.507744,12.1081
34060203,0.134223,0.0234358,0.00426106,10.2,3.3,24.75,-0.383203,-0.258662,10.913
34073377,-0.0351537,0.0181095,-0.0170442,10.2,4.05,24.75,-0.883762,0.222737,11.2459
34096217,0.072438,0.056459,0.0138484,10.5,3.45,24.6,-0.926873,0.419128,11.6028
34109378,-0.0298274,0.0894822,0.0191748,10.8,2.4,24.15,-0.790356,0.313748,10.8675
34132203,0.0287621,0.0394148,-0.00639159,9.9,2.55,24.75,-0.965193,0.0670606,11.5285
34144377,0.0170442,0.0500674,0.00532632,10.8,3,24.15,-0.864602,0.474214,10.9082
34167209,-0.0245011,0.036219,0,11.1,1.95,22.5,-1.09213,0.696951,11.562
34179382,0.0692422,0.0394148,0.0106526,11.1,3,23.85,-0.900527,0.464634,11.1501
34202203,-0.0234358,0.0596548,-0.00106526,10.5,1.95,23.85,-1.23104,0.237107,11.028
34214420,0.0841559,0.0543285,0.02024,9.15,2.55,24,-1.06339,0.292192,11.5093
34237203,0.00213053,0.0756338,0.0138484,11.55,1.95,23.85,-0.740061,0.421523,10.8387
34249378,0.0596548,0.0500674,-0.00745685,11.85,3,24.15,-0.828677,0.404758,11.5668
34272212,0.00426106,0.0468716,0.00532632,9.3,3.45,24.15,-0.929268,0.651445,10.9992
34285377,0.0340885,0.0426106,0.0138484,10.2,2.55,23.7,-1.10889,0.349673,11.3944
34308203,0.0191748,0.0298274,0.00745685,10.05,4.2,24.15,-1.12805,0.486189,11.0375
34320378,0.00958738,0.0287621,0.00745685,9.75,1.95,25.65,-0.878972,0.438289,11.2483
34344223,-0.00213053,0.0191748,-0.00106526,10.65,1.8,24,-0.878972,0.471819,11.1453
34357379,-0.00958738,0.00426106,-0.00958738,10.05,3.45,24.15,-0.843047,0.546064,11.3249
34370377,-0.00639159,-0.00532632,-0.00426106,10.8,3,24.9,-0.811912,0.546064,11.2579
34393243,-0.0415453,-0.00639159,-0.00426106,10.8,3,24.6,-1.12566,0.428709,11.289
34406379,0.00426106,-0.0234358,0.00745685,11.7,3.3,25.05,-1.04423,0.421523,11.3656
34429203,-0.052198,-0.0223706,-0.00213053,10.2,2.1,24,-0.907712,0.447869,11.0974
34441377,-0.0820254,0,-0.00532632,11.1,2.7,24.15,-1.32205,0.126936,11.0423
34464209,0.04048,0.0234358,0.0191748,11.4,4.05,24.3,-1.06578,0.237107,11.2219
34477382,-0.0490022,0.015979,0.00426106,10.2,2.55,25.05,-1.02986,0.416733,10.8938
34500203,0.0255663,0.00106526,0.00426106,10.8,2.4,24.6,-1.12326,0.371228,11.3058
34512381,0.00532632,-0.00532632,0.00532632,10.2,1.8,24.3,-0.766406,0.428709,11.0543
34535203,0.00213053,-0.0181095,-0.00426106,10.8,2.7,24.6,-0.845442,0.457449,11.313
34547378,0.0106526,-0.00426106,-0.00319579,10.2,2.1,22.95,-0.883762,0.395178,11.2243
34570203,0.00532632,0.0106526,0.0127832,10.5,3.45,23.55,-1.12326,0.364043,11.2531
34582376,0.0330232,0.0415453,0.0308927,9.9,2.55,23.7,-1.12566,0.220342,10.9992
34605203,0.0575243,0.0607201,0.0213053,10.8,3.75,25.65,-1.29092,0.196392,10.992
34618378,0.0351537,-0.00958738,0.00958738,10.95,4.35,24,-1.78429,0.498164,10.8842
34631384,0.0255663,0.0213053,0.0138484,10.95,1.8,25.05,-1.11129,0.265847,11.21
34654209,0.072438,-0.00958738,0.00532632,10.95,2.55,24.75,-0.993933,0.55804,11.1046
34667375,0.0905475,-0.00106526,0.0127832,10.5,1.65,24.9,-0.878972,0.531694,11.186
34690203,0.110787,0.0479369,0.0149137,10.2,2.1,24.3,-1.08494,0.6251,11.1573
34703381,0.0820254,0.140615,0.0255663,10.8,2.7,22.8,-1.30529,0.522114,10.9489
34726203,0.134223,0.197074,0.0245011,11.4,3.6,25.05,-1.17356,0.565225,11.5285
34739375,-0.036219,0.213053,0.0106526,10.5,2.4,24.15,-1.53521,0.565225,11.2291
34762217,0.0617853,0.168312,0.0223706,10.8,2.4,25.65,-1.47773,0.397573,11.301
34775379,0.0245011,0.131028,0.0106526,10.8,3,24.6,-0.907712,0.399968,11.0064
34788376,0.056459,0.0639159,-0.00319579,10.05,2.7,24.9,-0.996328,0.344883,11.0136
34811203,0.120375,0.02024,-0.00852211,10.8,2.7,23.55,-1.14961,0.347278,11.0256
34824376,0.196009,0.00319579,-0.00639159,10.05,1.95,25.65,-1.25978,0.165256,11.1285
34847203,0.311057,-0.0223706,-0.00745685,10.95,2.1,25.8,-1.1544,0.426313,11.0998
34860377,0.372843,-0.0607201,-0.0287621,9.15,2.1,23.7,-0.943638,0.186812,10.8387
34883217,0.62531,-0.0788296,-0.00958738,9.75,1.95,24.6,-0.524509,-0.457449,10.5777
34896378,0.763795,0.015979,0.0351537,12,2.1,24.3,-0.186812,0.126936,10.5394
34919203,1.14303,0.147006,0.0745685,10.5,1.65,23.1,-0.301772,0.258662,10.7837
34931382,1.32945,0.292948,0.137419,11.55,2.7,25.2,-1.04662,0.383203,10.4412
34954209,1.68844,0.426106,0.216249,10.65,3.6,24,-1.31487,0.306563,10.5298
34967376,1.94943,0.454868,0.297209,12.45,3.6,24,-0.797542,0.153281,10.1322
34980377,2.43626,0.456998,0.322775,10.05,4.5,23.1,-0.984353,0.725691,11.4638
35003217,2.99126,0.639159,0.432497,10.8,4.2,23.85,-0.898132,1.99745,10.5681
35016378,3.61444,0.697748,0.60294,11.1,4.2,23.1,-1.55437,3.4153,13.2457
35039203,3.56864,0.601874,0.771251,10.95,4.8,23.7,-3.3674,4.03082,16.2108
35051382,3.45785,-0.1012,0.688161,11.7,6.15,24,-3.85838,4.36133,13.9619
35074209,3.87543,-0.311057,0.862864,10.8,6,22.8,-2.86684,4.9074,15.442
35087376,3.65066,-0.540089,0.871386,11.7,6.15,23.25,-3.30752,5.73607,16.5006
35110203,3.27888,-0.616788,0.820254,11.4,6.9,22.35,-1.78429,5.18282,13.3655
35122380,3.44293,-0.567786,0.871386,12.6,7.2,22.05,-1.00112,3.35063,14.46
35145203,3.13933,0.278034,2.13159,11.55,8.25,21.45,5.07505,7.99458,22.0786
35157376,0.102265,0.330232,2.10816,12.75,9.6,19.5,1.17595,1.58311,20.3039
35180217,1.02372,-0.214118,1.95902,12.15,6.45,20.4,-0.799937,0.787961,9.04487
35193378,-0.345146,-0.314253,1.53398,12.6,9.75,19.35,-1.79626,0.282612,9.38018
35216203,0.264186,-0.335558,1.17925,12.6,8.7,18.9,-2.66087,-0.153281,9.49514
35228378,-0.842624,-0.0681769,0.717988,12.9,9.3,19.65,-2.60578,-0.735271,7.13125
35241679,-0.769121,0.0585895,0.340885,12,11.1,19.2,-3.19735,-0.706531,9.44245
35264203,-1.43172,0.185356,-0.0703075,11.85,9.75,19.65,-2.66326,-0.361648,7.46177
35276378,-1.86528,0.217314,-0.368581,13.5,9.15,18.45,-2.16989,-0.126936,9.57896
35299217,-2.13905,0.295078,-0.500674,11.85,8.7,17.55,-0.301772,0.00958008,7.23184
35312378,-2.48739,0.459129,-0.448476,12,8.85,17.4,0.395178,0.61073,8.89878
35335203,-2.6312,0.514523,-0.405866,11.1,7.95,17.25,-0.59636,1.39869,9.14068
35347378,-2.99872,0.450607,-0.578439,10.5,7.2,18.9,-2.15552,2.5507,11.1812
35370209,-3.23627,0.400539,-0.78723,11.1,8.7,16.5,-1.8753,3.53265,11.3441
35382379,-3.46744,0.478304,-0.890561,11.85,7.95,17.25,-0.160466,3.90867,11.3082
35405203,-3.37369,0.565655,-0.756338,10.5,7.2,16.5,0.237107,4.64155,11.1405
35417384,-3.40672,0.484695,-0.677508,10.8,8.25,15.75,-1.26697,5.98036,14.0193
35440203,-3.73375,0.36219,-0.831971,11.4,8.1,17.1,-3.28357,6.84018,15.1857
35452377,-3.84241,0.279099,-1.14729,9.75,8.7,17.55,-4.43079,7.65688,15.0875
35475246,-3.82749,0.274838,-1.48924,12,8.4,16.65,-3.3171,7.53952,13.9666
35488388,-3.51644,0.390952,-1.56381,11.55,7.5,17.55,-1.09931,6.83539,14.3067
35511203,-3.27036,0.386691,-1.43491,10.95,8.4,18.45,-1.16637,6.31806,13.102
35523377,-2.89432,0.18003,-1.24849,11.7,8.4,17.7,-0.934058,6.23424,13.0493
35546213,-2.31588,0.106526,-0.911866,10.95,10.35,18.15,-0.366438,5.9133,13.8205
35559382,-2.16568,0.356864,-0.556068,12.6,9.75,20.4,0.766406,5.92767,15.0612
35582203,-2.37767,0.593352,-0.250337,13.95,10.5,19.65,0.505349,5.18043,13.8924
35595403,-2.06768,0.563525,0.0106526,15,10.5,20.7,-0.0934058,4.19847,9.72267
35608379,-1.58618,0.361125,0.131028,15.6,10.35,20.55,-0.464634,3.72905,9.1287
35631203,-1.26447,0.270577,0.192813,17.1,9.6,22.65,-1.09452,2.95066,9.07122
35643378,-1.06207,0.234358,0.233293,17.25,9,21.75,-0.948428,2.59141,10.331
35666203,-0.86606,0.2024,0.313188,17.4,7.65,21.6,-0.170046,1.46575,8.16111
35678377,-0.581634,0.238619,0.480434,16.35,8.4,22.65,0.234712,1.30529,9.59333
35701203,-0.50174,0.237554,0.510262,18.45,8.1,22.65,-1.78429,1.03225,9.73704
35713413,-0.433563,0.117179,0.307861,17.55,8.25,22.5,-3.08479,0.787961,10.1394
35736203,-0.398409,0.118244,0.0468716,18.75,8.4,21.3,-2.47406,0.337698,9.73225
35748377,-0.246076,0.189617,-0.0191748,20.25,7.65,22.35,-1.18314,-0.380808,8.99218
35771203,0.00319579,0.174703,0.0394148,20.25,8.4,21.9,-0.816702,-0.665815,9.26043
35784384,0.0106526,0.144876,0.120375,18.3,7.95,20.7,-0.953218,-1.01309,9.86876
35807203,-0.0234358,0.0990696,0.1012,19.05,6.45,21.75,-2.61536,-0.311353,10.9202
35819377,0,0.0798948,-0.160855,19.5,7.35,21.3,-4.25835,0.239502,7.77312
35842217,0.34195,0.115049,-0.616788,18.15,7.35,21.3,-4.19847,0.852627,8.00065
35855379,1.68951,0.54435,-0.351537,17.55,7.5,20.7,-6.66294,0.102986,2.74837
35878203,2.00589,0.187487,-0.487891,19.65,8.25,20.4,0.771196,-1.9232,19.3387
35891385,0.448476,0.237554,-0.401605,19.5,6.9,21.6,2.47406,-3.8967,7.53362
35914204,1.82373,-0.223706,0.015979,18.6,7.95,20.4,3.07042,-3.47278,8.92273
35926377,1.38165,-0.092678,0.298274,19.35,5.25,19.65,1.51844,-3.00814,12.532
35939675,1.69271,0.0500674,0.466586,17.85,6.75,20.4,-1.89207,-1.05141,11.6914
35962217,1.6469,0.122505,0.354733,19.35,5.25,20.4,-4.43797,-0.0958008,13.1451
35975379,1.65542,-0.113983,0.231162,18.15,6.15,20.55,-3.62845,1.03465,15.3462
35998203,0.56459,-0.111853,0.166181,17.85,6.45,18.9,-2.24892,0.656235,14.7738
36011386,0.935302,-0.192813,0.148072,17.4,5.85,18.45,-2.63692,0.0526904,12.1057
36034210,0.530502,-0.279099,0.120375,17.7,5.85,20.25,-2.07888,-0.641865,11.1166
36046375,0.776578,-0.386691,0.168312,16.8,6.45,18.3,-1.72681,-0.548459,11.2651
36069203,0.586961,-0.481499,0.169377,17.85,6,19.35,-2.07409,-0.170046,11.1669
36081380,0.784035,-0.530502,0.150202,17.4,5.85,20.25,-2.04774,0.0526904,11.0016
36104203,0.668986,-0.519849,0.105461,17.4,5.55,19.2,-0.888552,0.725691,12.8793
36116375,0.387756,-0.327036,0.100135,18.15,4.8,19.8,-0.555645,0.917293,16.2275
36139217,0.172573,-0.296144,0.150202,17.1,5.1,18.45,-1.14721,0.153281,8.82214
36152379,0.412257,-0.347276,0.100135,17.1,4.8,20.25,-1.73399,-0.65863,12.532
36175203,0.26312,-0.312122,0.106526,17.55,3.75,18.9,-2.04774,0.143701,10.9489
36188377,0.329167,-0.247141,0.0735032,18.6,3.75,18.6,-0.725691,0.292192,11.9045
36201382,-0.0245011,-0.14168,0.0447411,17.1,4.8,19.2,-0.914898,0.0383203,10.798
36224203,0.381365,-0.0713727,0.0969391,16.65,4.8,20.25,-1.12087,0.306563,12.2063
36236378,0.0649811,0.00852211,0.0532632,16.5,4.95,19.35,-1.52323,0.222737,11.2435
36259217,0.20027,0.0351537,0.0841559,17.55,3.75,18.3,-1.03944,0.246687,11.5788
36272378,0.116114,-0.0276969,0.0351537,17.55,4.2,18.9,-0.835862,0.0766406,10.8723
36295203,0.118244,0.0138484,0.052198,16.65,5.55,19.2,-1.0562,0.124541,11.6554
36307378,0.137419,-0.00532632,0.0458064,18.15,3.3,18.75,-1.14961,0.548459,11.6483
36330209,0.00213053,-0.00319579,0.00639159,17.7,5.85,17.7,-1.12566,0.426313,11.4543
36342379,0.0372843,0.00745685,0.00213053,16.8,4.5,17.55,-1.43701,0.270637,11.2148
36365203,0.04048,0.015979,-0.00852211,17.85,4.5,18.9,-1.31247,0.421523,11.289
36377384,0.0351537,0.0181095,-0.00319579,16.65,4.05,18.75,-1.18553,0.428709,11.3441
36400203,0.00958738,0.0117179,-0.00426106,16.65,4.8,18.75,-1.16637,0.517324,11.1812
36413377,0.0213053,-0.00852211,0,16.5,4.2,19.35,-1.12566,0.287402,11.2794
36436217,-0.0117179,-0.0255663,-0.00639159,16.35,4.05,18.15,-1.18553,0.263452,11.0735
36449379,-0.0106526,-0.0234358,-0.00852211,16.2,3.75,18.9,-1.21188,0.296982,11.3106
36472203,-0.0319579,-0.0287621,-0.00958738,17.55,3.75,18.6,-1.1544,0.356858,11.2842
36484377,-0.0234358,-0.0245011,-0.00532632,17.25,6,19.95,-0.979563,0.330513,11.2387
36507209,-0.0426106,-0.0117179,-0.0149137,18.3,3.75,18.6,-1.19511,0.390388,11.1405
36520382,-0.00532632,-0.0266316,-0.00426106,17.85,3.75,17.55,-1.15679,0.347278,11.2172
36533377,-0.0383495,-0.0415453,-0.0106526,15.6,5.1,19.2,-1.2526,0.313748,11.1477
36556217,-0.0213053,-0.0490022,-0.00745685,17.85,6.45,18.9,-1.11368,0.344883,11.2962
36569378,-0.0340885,-0.036219,-0.00639159,17.1,2.55,18.45,-0.900527,0.335303,11.0543
36592203,-0.0330232,-0.0287621,-0.00852211,16.5,3.45,18.3,-1.02746,0.299377,11.4207
36604377,0,-0.0415453,-0.00319579,17.4,2.85,18.15,-1.06578,0.311353,11.1333
36627209,-0.0660464,-0.076699,-0.0170442,17.1,4.05,19.2,-1.34121,0.414338,11.3273
36639382,-0.0181095,-0.11931,-0.0149137,16.65,4.8,18.75,-1.14721,0.289797,11.1908
36662203,-0.072438,-0.108657,-0.0181095,16.5,4.5,19.35,-0.823887,0.131726,11.2698
36674422,0.0127832,-0.0894822,0.0127832,17.25,5.7,17.85,-0.55325,0,11.2172
36697203,-0.04048,-0.04048,0.00745685,16.5,3.45,17.55,-0.864602,0.344883,11.1884
36710378,-0.00852211,-0.0671117,0.00319579,16.35,4.35,19.5,-0.924478,0.162861,11.0639
36733203,0.0106526,-0.0500674,-0.00745685,17.1,3.6,19.2,-0.912502,0.313748,11.1333
36745377,-0.00426106,-0.056459,-0.0149137,17.85,4.95,17.55,-0.931663,0.404758,11.174
36768203,0.0149137,-0.0383495,0,17.1,3.3,18.75,-0.998723,0.275427,11.083
36780378,0.0245011,-0.0245011,0.00958738,16.8,4.5,18.6,-0.922083,0.160466,11.2219
36803223,-0.00639159,-0.0276969,0.00532632,17.4,5.1,18.45,-0.922083,0.213157,11.119
36816379,0.00745685,-0.0308927,0.00319579,16.8,4.5,18.3,-1.04902,0.256267,11.1357
36829674,-0.015979,-0.0266316,0.00319579,16.5,3.45,18.9,-1.07536,0.332908,11.3058
36852209,-0.0213053,-0.0181095,0.00213053,17.1,4.8,18.15,-1.32445,0.426313,11.2531
36865379,0.0191748,-0.00852211,0.0138484,16.65,4.05,18.75,-1.34121,0.476609,11.3776
36888203,0.0149137,0.00639159,0.0138484,17.4,4.05,18.75,-1.0083,0.440684,11.0663
36900378,-0.00319579,0.0149137,0.02024,16.8,5.25,18.6,-1.01549,0.273032,11.2579
36923217,0.00426106,-0.00213053,0.00426106,17.4,2.85,18.15,-0.632285,0.124541,11.095
36936378,-0.0223706,-0.00532632,-0.00852211,17.1,5.1,19.2,-0.907712,0.392783,11.2627
36959203,-0.00852211,-0.0127832,-0.0127832,17.7,2.55,18.75,-0.878972,0.510139,11.1142
36971384,-0.0308927,-0.0394148,-0.0191748,17.4,4.8,19.8,-0.677791,0.512534,11.2507
36994209,-0.00532632,-0.0340885,-0.0191748,16.8,4.2,20.4,-0.6251,0.371228,11.2818
37007375,-0.00852211,-0.0117179,-0.0149137,17.4,5.1,18.45,-0.890947,0.289797,11.3848
37030203,-0.0308927,0.0181095,0,15.3,3.3,18.45,-0.694556,0.270637,11.3297
37042381,0.00319579,0.0426106,0.0127832,15.6,5.1,19.2,-0.828677,0.285007,11.1261
37065203,-0.0298274,0.036219,0.0127832,16.35,5.55,18.15,-1.0562,0.416733,11.5908
37077375,-0.0553937,0.0138484,0.0234358,17.7,3.6,17.7,-1.22386,0.397573,11.7393
37100217,-0.0788296,-0.0798948,0.0191748,17.1,4.05,17.7,-1.27655,0.155676,10.8986
37112379,-0.0394148,-0.117179,0.015979,17.55,5.25,17.85,-0.852627,-0.141306,11.0447
37135203,0.239684,-0.0735032,0.0500674,17.55,4.5,19.35,-0.689766,0.229922,11.3561
37147377,-0.12144,0.0479369,0.103331,17.4,4.05,18.75,-1.36037,-0.256267,12.9703
37170209,0.0649811,-0.04048,-0.185356,16.35,5.1,18.15,-4.5218,0.56283,9.73464
37182382,0.393083,-0.872451,-1.82054,17.1,4.05,18.75,-16.1903,-1.43701,9.2724
37205203,0.64555,-1.52972,-3.70819,15.6,4.8,19.2,-9.03162,0.385598,16.7401
37217382,-0.348341,-0.653007,-4.75641,17.1,5.85,19.5,-6.06658,0.950823,6.73847
37240203,1.04502,-0.296144,-5.22193,16.2,3.75,19.35,-3.92783,1.37953,14.0648
37252378,-0.126766,-0.137419,-5.40728,16.65,4.35,19.2,0.0287402,1.14482,10.2448
37275245,0.433563,-0.308927,-5.36361,16.65,4.8,18.75,2.29922,0.790356,12.5105
37288378,-0.0596548,-0.307861,-5.28584,18.3,3.75,20.4,1.52084,0.912502,9.9933
37301376,0.0681769,-0.50174,-5.25601,16.8,2.7,20.4,1.57113,1.18314,10.6783
37324203,0.02024,-0.591222,-5.03018,15,3.45,19.95,2.35191,2.0214,9.15265
37336405,0.230097,-0.658333,-4.69462,17.4,3.6,19.5,1.78908,2.87163,9.62207
37359203,0.183225,-0.54222,-4.30686,16.5,3,21,1.91362,3.06084,10.9417
37371377,0.127832,-0.343015,-3.852,16.35,2.85,22.35,2.7423,2.94827,12.077
37394247,-0.0830906,-0.18003,-3.40885,14.7,3,20.7,3.09916,2.1651,9.66758
37407382,0.123571,-0.192813,-2.96463,16.5,4.2,21.45,2.46448,1.84417,10.3238
37430203,0.169377,-0.249272,-2.58114,15.9,3.3,21.3,1.61664,2.28485,10.8124
37443377,0.0639159,-0.247141,-2.28286,15.6,4.8,21.3,0.239502,2.67763,12.4889
37467209,-0.299339,0.0458064,-2.11562,15.3,4.05,21.3,-2.41657,2.51477,9.18858
37480382,0.229032,0.498544,-2.3063,16.2,3.75,20.7,-5.68817,3.47278,10.889
37493377,0.245011,0.884169,-2.55237,15.45,2.7,20.7,-3.77455,3.34105,8.99697
37516217,0.295078,0.982174,-2.4842,16.5,4.5,20.7,-1.17835,2.45729,8.87483
37529378,0.739293,0.855407,-2.11668,14.55,4.35,21.3,0.270637,1.39151,8.92273
37552203,0.639159,0.618919,-1.70123,15.9,3.3,22.65,0.459844,1.38193,12.4841
37565377,1.04715,-0.537959,-1.25595,16.8,4.2,21.75,1.35798,1.26457,21.0439
37588203,-4.15666,0.790426,-0.446346,14.55,4.8,21.6,-0.395178,-1.57353,3.89319
37600378,2.50124,-0.673247,0.148072,14.7,3.75,22.5,-6.29651,-0.316143,18.498
37623203,-2.78034,0.0628506,0.0138484,14.85,3.3,21.3,-0.490979,-0.237107,-0.228641
37635382,1.25062,-0.567786,0.223706,15.45,4.2,21.75,-2.12438,0.371228,14.7666
37658203,-1.51374,-0.0255663,-0.206661,15.75,3.75,22.8,-1.90165,0.0287402,7.5911
37670378,0.308927,0.506001,0.214118,16.35,3.3,22.35,1.57113,-2.97701,17.5855
37693252,0.459129,0.722249,0.0735032,14.85,3.6,21.9,-1.07297,0.56762,5.8116
37706385,-0.249272,0.531567,-0.0830906,16.65,3.3,24.3,-1.66454,0.158071,15.9186
37719376,0.210922,0.26099,-0.00213053,14.7,2.7,21,-2.63692,0.467029,8.81735
37742203,-0.0117179,0.126766,-0.0213053,16.2,4.2,22.8,-1.67651,0.804727,13.4972
37754423,0.122505,0.106526,0.0308927,15.9,3.3,21.3,-0.732876,0.0718506,10.0077
37777203,-0.205596,0.124636,0.00745685,16.5,3.75,21.75,-0.989143,0.246687,12.338
37790376,0.149137,0.168312,0.036219,14.55,3.3,21.6,-0.912502,0.153281,10.6304
37813243,-0.052198,0.15979,0,15,3.75,20.7,-1.16158,0.129331,11.2124
37826378,0.0809601,0.13955,0.0415453,15.6,4.35,21.6,-0.720901,0.421523,12.3644
37849203,-0.0511327,0.0916127,0.0245011,17.1,2.1,22.95,-0.529299,0.519719,10.41
37861378,-0.0756338,0.0553937,-0.0149137,16.2,3.45,21.45,-1.08015,-0.213157,10.8938
37884217,0.0852212,0.072438,-0.0340885,15.3,2.85,22.35,-0.831072,0.0574805,11.119
37897379,0.0596548,0.184291,0.0255663,15.3,3.6,22.65,-1.48252,0.61073,11.6722
37920203,0.0127832,0.191748,0.0447411,14.7,4.5,22.05,-1.08255,0.517324,10.9896
37933413,0.132093,0.171508,0.0213053,16.35,3.6,20.85,-0.998723,0.524509,10.7669
37946379,0.0745685,0.092678,0.00319579,16.35,3.3,22.65,-1.02028,0.622705,11.4854
37969203,0.0490022,0.0372843,-0.0223706,16.5,4.2,21.45,-1.04902,0.687371,11.119
37981377,0.0372843,0.0500674,-0.0276969,16.5,4.5,21.45,-1.22146,0.608335,11.0806
38004203,0.0703075,0.0575243,0,16.2,3,22.5,-1.02267,0.361648,11.3417
38016378,0.0319579,0.0809601,0.00426106,15.75,4.2,22.5,-1.14003,0.768801,11.8231
38039203,-0.0298274,0.0543285,-0.00106526,15.6,4.05,21.9,-0.979563,0.555645,11.0136
38051392,-0.0692422,0.036219,-0.0191748,16.35,3.6,21.9,-1.07297,0.421523,11.2028
38074204,0.00532632,0.0553937,-0.00852211,14.7,3.45,21,-1.4442,0.205972,10.9944
38086367,-0.0351537,0.0298274,0,15.9,3.3,21.6,-1.53042,0.548459,11.3106
38109203,0.0213053,0.0330232,0.00639159,15.3,4.05,21.6,-1.55916,0.543669,11.0208
38121372,0.00745685,0.0245011,0,15.45,3.45,22.5,-1.56155,0.409548,11.0902
38144203,0.0255663,-0.00639159,-0.00106526,15,4.2,20.7,-1.39869,0.385598,11.1669
38156367,0.00639159,-0.0170442,-0.0181095,15.9,3.6,22.35,-1.16158,0.296982,10.9034
38179217,0.0170442,-0.00958738,-0.0127832,16.35,3.3,22.35,-1.27176,0.227527,11.2004
38192379,0.0436758,-0.00319579,-0.0106526,15.6,3.6,22.35,-1.44659,0.435894,11.1214
38215203,0.0266316,-0.0319579,-0.02024,15.3,3.3,21.3,-1.36756,0.421523,11.0184
38227377,0.0777643,-0.076699,-0.0213053,15.45,4.2,22.05,-1.5879,0.337698,11.1214
38250209,0.124636,-0.106526,-0.0245011,16.2,3,22.5,-1.37474,0.347278,10.9896
38262382,0.140615,-0.0980043,-0.0372843,17.1,3.3,21.3,-0.936453,0.244292,11.2507
38285203,0.185356,-0.0745685,-0.036219,14.25,4.05,22.35,-1.1999,0.141306,11.2291
38297382,0.308927,-0.036219,-0.04048,14.55,5.1,21.6,-1.06099,-0.119751,11.2028
38320203,0.388821,-0.0276969,-0.0735032,16.2,3.75,22.5,-0.859812,0.0191602,11.1788
38332378,0.594418,-0.0149137,-0.0713727,16.5,3.75,22.8,-0.783171,0.143701,11.4998
38355250,0.650877,0.0149137,-0.0596548,16.2,3.75,21.75,-0.792751,0.273032,10.7166
38368378,0.902279,0.0351537,-0.00639159,15.9,4.05,21.6,-2.02858,0.713716,12.1201
38391203,0.606135,-0.255663,-0.429302,16.2,3.75,22.8,-6.28453,2.23934,12.4602
38403378,0.421845,-0.401605,-0.935302,14.55,3.3,22.65,-3.54223,3.37937,12.3596
38427209,0.234358,-0.591222,-1.60961,14.85,4.05,22.35,-5.78158,2.30161,14.7929
38439379,-1.00774,-0.596548,-2.6344,15.75,4.2,21.45,-6.1552,2.90755,17.6717
38452372,-1.03757,-0.597613,-2.77288,15.3,5.1,21.6,-1.76273,1.13045,7.55517
38475249,-0.58483,-0.577373,-2.66849,15.75,4.2,23.85,0.807122,1.24541,7.08335
38488379,-0.630637,-0.357929,-2.44691,16.2,3.75,23.55,1.17356,0.58199,-1.96024
38511203,1.43278,-0.50387,-2.00696,15.9,5.1,22.35,0.747246,0.993933,9.95019
38524377,-0.227967,0.0553937,-1.50522,15.9,4.05,22.95,4.45713,1.09452,7.65576
38547209,0.758468,0.0436758,-0.543285,15.6,4.8,24.75,5.33131,0.0239502,6.07505
38560382,-2.26156,1.10787,0.494283,15.45,4.5,23.85,3.46559,1.75076,40.5645
38583203,1.2634,-0.143811,0.162985,15.75,4.2,23.1,6.93837,-1.71723,-26.775
38595402,3.01896,-1.09403,-0.0905475,16.5,3.75,23.1,-0.443079,-1.72441,34.7051
38618203,-3.33002,0.122505,-0.452737,17.25,4.95,23.85,2.04535,2.51477,-6.12278
38630375,2.69938,-0.421845,-0.0468716,15.6,3.6,24,-6.4929,-0.775986,22.9767
38653235,-1.35608,0.533697,-0.0394148,15.9,2.85,24,-2.23455,0.244292,2.81543
38666377,1.43172,0.00532632,0.00426106,16.2,4.95,22.5,-2.30161,0.0838257,15.8994
38679370,-0.869256,0.218379,-0.0372843,17.1,5.1,24,-1.07297,0.529299,6.63549
38702203,0.721184,-0.128897,0.0170442,15.9,4.8,23.7,-1.03704,0.493374,15.0109
38714421,-0.442085,0.0372843,-0.0308927,15,5.25,23.55,-0.361648,0.730481,7.84258
38737203,0.26312,-0.0234358,0.00639159,16.35,4.8,23.25,-0.993933,0.296982,14.4672
38749368,-0.0852212,0.0649811,-0.0106526,16.35,4.05,24.3,-0.61073,0.754431,8.61617
38772207,-0.072438,0.036219,-0.00532632,16.65,5.55,23.7,-1.42504,0.287402,13.2984
38785377,0.168312,0.015979,0.0223706,14.7,4.5,24.9,-1.03944,0.560435,9.89511
38808203,-0.210922,0.00745685,-0.0170442,17.85,4.5,23.85,-1.33642,0.356858,11.9764
38820373,0.177899,-0.0138484,0.0255663,17.4,4.8,24,-1.13045,0.225132,11.0399
38843203,-0.153398,0.00426106,-0.00106526,15,5.25,23.85,-0.955613,0.395178,10.9298
38855375,0.0894822,-0.00213053,0.0127832,16.8,4.95,24.15,-1.13524,0.498164,11.6626
38878203,-0.0596548,0.00319579,0.0106526,14.7,5.7,22.8,-0.869392,0.502954,10.7884
38891384,0.00106526,-0.0117179,0.00319579,15.6,4.35,22.95,-0.981958,0.488584,11.6195
38914204,-0.0308927,-0.015979,0.00852211,15.3,4.35,24.3,-0.902922,0.517324,10.913
38926368,-0.0372843,-0.0340885,-0.00213053,17.55,4.5,23.1,-0.958008,0.510139,11.4088
38949203,-0.0287621,-0.0117179,0.00745685,16.5,3.75,23.55,-0.876577,0.483794,11.2124
38961374,-0.04048,-0.00532632,0.00319579,15.45,4.5,24.6,-0.866997,0.438289,11.2435
38984203,-0.0511327,-0.00213053,-0.00426106,16.8,4.5,23.55,-0.993933,0.467029,11.2219
38996368,-0.0266316,0.00106526,0,15.75,3.45,23.1,-0.943638,0.481399,11.1836
39019218,-0.0319579,0.00319579,-0.00213053,14.7,4.95,24.15,-0.958008,0.304167,11.2076
39032378,-0.0223706,-0.00639159,0.0106526,16.2,4.5,23.85,-1.02507,0.337698,11.2555
39055203,-0.0383495,-0.0117179,0.00319579,16.5,4.95,23.1,-0.917293,0.390388,11.1717
39067377,-0.00319579,-0.00106526,0.0127832,16.35,3.6,24,-1.02267,0.409548,11.186
39080676,-0.0298274,0.00106526,0.00852211,16.65,5.55,22.95,-0.890947,0.392783,11.1166
39103203,0.00532632,0.0106526,0.00852211,16.8,4.2,24.15,-0.953218,0.438289,11.289
39116374,-0.0223706,0.00426106,0.00213053,17.25,3.75,23.85,-0.833467,0.404758,11.1932
39139217,-0.0276969,0.00852211,0.00213053,15.75,4.5,22.8,-1.04183,0.404758,11.1549
39152378,0.0106526,0.00639159,0.0117179,16.65,5.1,22.65,-0.929268,0.352068,11.119
39175203,-0.0276969,0.0170442,0.00532632,16.2,4.5,23.55,-0.946033,0.443079,11.289
39187377,-0.0181095,0.0170442,0.00745685,15.9,4.8,23.25,-0.783171,0.447869,11.2746
39210209,-0.0372843,0.02024,0,16.35,5.85,24,-0.881367,0.311353,11.0088
39223382,-0.02024,-0.00426106,0,16.35,4.05,22.95,-1.07776,0.419128,11.3992
39246203,-0.0298274,0.0245011,0.00639159,15,5.25,22.5,-0.845442,0.349673,10.9657
39258382,-0.0149137,0.0394148,0.00319579,16.5,3.75,22.8,-1.23583,0.378413,11.2459
39281203,0.0351537,0.0543285,0.0181095,14.7,3.75,23.1,-0.917293,0.502954,11.2579
39294378,-0.0308927,0.0415453,-0.00319579,16.5,5.25,22.5,-0.680186,0.416733,10.9777
39307377,-0.0713727,0.0458064,0.00958738,15.9,4.05,23.25,-1.21428,0.344883,11.3465
39330203,0.0255663,0.0383495,0.0106526,15.75,4.5,24.6,-0.958008,0.431104,11.1333
39343377,-0.0830906,0.0852212,0.0149137,18.3,4.95,23.1,-0.946033,0.299377,11.2052
39366203,0.0106526,0.109722,0.015979,17.25,5.7,24.6,-0.886157,0.344883,11.0208
39378384,-0.00532632,0.111853,-0.00852211,15.75,4.5,24.6,-1.23823,0.522114,11.0998
39401203,-0.015979,0.0830906,0.00106526,16.5,3.75,24.15,-1.51844,0.546064,11.5285
39414377,0.00958738,0.0340885,0.015979,15.6,4.35,23.25,-1.19751,0.641865,10.9345
39437217,-0.0276969,0.00426106,0.00532632,15.9,5.1,24,-1.17835,0.438289,11.6028
39450379,0.0266316,0.00532632,0.0106526,16.2,3.75,22.5,-0.984353,0.318538,10.9681
39473203,-0.0490022,0.0340885,0.0117179,15.75,3.45,23.1,-0.972378,0.275427,11.4088
39485377,0.0276969,0.0340885,0.0255663,16.5,4.95,23.55,-1.09213,0.687371,11.4758
39508209,-0.0266316,0.0372843,0.0117179,16.65,3.3,22.65,-0.893342,0.55804,11.1357
39521382,0.00106526,0.00745685,0.0117179,15.9,3.6,23.25,-1.02746,0.443079,11.186
39534377,0.00319579,-0.0234358,0.0106526,16.35,5.1,24,-0.998723,0.428709,11.3201
39557217,-0.0127832,-0.0479369,0.00213053,15.3,4.35,23.7,-0.962798,0.299377,11.174
39570378,-0.0191748,-0.0426106,0.00532632,15.6,5.55,23.25,-0.998723,0.455054,11.4543
