timestamp,gyro_x,gyro_y,gyro_z,mag_x,mag_y,mag_z,accel_x,accel_y,accel_z
19191375,-0.0149137,0.00426106,-0.00106526,23.25,-11.55,69.6,-1.24541,1.28732,9.92421
19204382,-0.00532632,0.0117179,0.00106526,24.45,-12.15,70.5,-1.23344,1.28972,9.90984
19217379,-0.015979,0.015979,0.00532632,25.65,-13.65,70.05,-1.32924,1.33762,9.93618
19240203,-0.00639159,0.0149137,0.00319579,25.05,-11.25,70.35,-1.20948,1.33283,9.94337
19253384,-0.0138484,0.0149137,0.00639159,24,-12.3,71.7,-1.27415,1.30409,9.89547
19276203,-0.00745685,0.0117179,0.00106526,24.45,-12.15,70.05,-1.21906,1.28014,9.9266
19288379,-0.00532632,0.0117179,0.00532632,23.25,-11.55,70.65,-1.24541,1.34241,9.88828
19311216,-0.0138484,0.015979,0.00639159,23.85,-12.45,69.45,-1.20469,1.3472,9.93858
19324377,-0.00639159,0.015979,0.00745685,23.25,-12.75,69.9,-1.27415,1.32804,9.94576
19347203,-0.00319579,0.0117179,0.00532632,24,-11.55,69.9,-1.23344,1.34959,9.88828
19359379,-0.00958738,0.0106526,0.00745685,25.05,-12.3,69.6,-1.30529,1.33043,9.8811
19382209,-0.00426106,0.0106526,0.00426106,25.2,-12.9,70.5,-1.31487,1.34001,9.95295
19394378,-0.00639159,0.00958738,0.00745685,24,-12.3,69.3,-1.27415,1.37594,9.92421
19417203,-0.00852211,0.0127832,0.00213053,23.85,-12.9,69.45,-1.29571,1.32804,9.90026
19429384,-0.00532632,0.0106526,0.00426106,24.45,-13.2,69.45,-1.26218,1.33043,9.96492
19452203,-0.0117179,0.00958738,0.00532632,24.15,-11.85,70.8,-1.28613,1.39749,9.96253
19464382,-0.0117179,0.015979,0.00532632,24.45,-12.15,68.7,-1.24062,1.34241,9.96732
19487216,-0.00639159,0.015979,0.00532632,23.25,-12.75,69.3,-1.23344,1.35199,9.91702
19499378,-0.0138484,0.0127832,0.00532632,24.45,-12.45,70.05,-1.27894,1.28253,9.95534
19522203,-0.0117179,0.0106526,0.00213053,24.45,-12.9,69,-1.29092,1.31367,9.92181
19534378,-0.0106526,0.015979,0.00319579,25.35,-12.75,70.65,-1.24302,1.33043,9.89068
19557209,-0.0117179,0.00958738,0.00639159,24.3,-11.55,70.35,-1.26218,1.33043,9.94097
19569379,-0.0106526,0.0127832,0.00852211,23.1,-11.4,70.05,-1.26697,1.30888,9.89068
19592203,-0.0106526,0.0117179,0.00106526,23.85,-12.45,70.05,-1.23823,1.30888,9.94576
19604420,-0.015979,0.00639159,0.00106526,24.45,-12.9,70.5,-1.28852,1.30409,9.92421
19627203,-0.00852211,-0.00319579,0.00958738,24.15,-12.45,70.5,-1.27415,1.34001,9.95774
19639380,-0.00958738,0.00532632,0.00745685,24.75,-13.8,68.85,-1.24541,1.30648,9.91463
19662212,-0.00745685,0.00106526,0.00958738,24.75,-13.5,70.35,-1.21906,1.34959,9.98887
19675376,-0.0106526,0.00639159,0.0149137,24.15,-12.45,69.45,-1.25499,1.32085,9.88349
19688373,-0.00532632,0.00745685,0.0138484,24.15,-12.9,70.05,-1.29331,1.30648,9.96253
19711203,-0.00426106,0.00639159,0.00532632,25.95,-11.4,70.05,-1.21188,1.31367,9.94576
19723443,-0.0106526,0.00532632,0.0117179,24.9,-13.2,69.75,-1.27176,1.29451,9.89786
19746203,-0.00213053,0.00639159,0.00852211,25.05,-13.05,70.65,-1.28613,1.30648,9.96013
19758376,0.00319579,0.00213053,0.00532632,24.75,-11.25,69.6,-1.25978,1.28493,9.84038
19781203,-0.0138484,0.00319579,0.00958738,22.95,-13.05,69.3,-1.27655,1.35678,9.87391
19794378,-0.00426106,0.00213053,0.00745685,24.45,-12.45,69.45,-1.3005,1.32325,9.94337
19817203,-0.00532632,0.00532632,0.00852211,23.4,-12.45,70.05,-1.21188,1.32325,9.86194
19829374,-0.00958738,0.00213053,0.00745685,24.15,-10.65,70.05,-1.23104,1.27774,9.93379
19852216,0.00532632,0,0.0149137,25.05,-12,69.9,-1.29092,1.31367,9.9266
19865377,-0.00319579,-0.00426106,0.0117179,25.05,-12.75,70.35,-1.22386,1.28972,9.84278
19888203,0,-0.00532632,0.0127832,24,-12.75,71.4,-1.28852,1.35917,9.90026
19900379,0.00213053,-0.00639159,0.0181095,24.45,-12.9,69.45,-1.28134,1.33522,9.95534
19923204,-0.00106526,0.00426106,0.0149137,24,-12,70.95,-1.2502,1.3448,9.93858
19935377,0.00106526,0,0.00958738,23.55,-12,69.6,-1.26697,1.34001,9.90984
19958203,-0.00106526,0.00852211,0.00958738,23.55,-10.8,70.65,-1.22386,1.33762,9.96492
19970377,0.00532632,0.0117179,0.0117179,24.45,-13.2,69.45,-1.23583,1.34001,9.929
19993203,-0.00106526,0.00106526,0.00745685,23.85,-12.45,70.5,-1.20948,1.37354,9.85475
20005377,-0.0117179,0.00852211,0.0127832,25.05,-13.05,70.35,-1.19272,1.35678,9.98169
20028216,0.00745685,0.0117179,0.00532632,22.8,-12.15,69.45,-1.25978,1.34241,9.88828
20041376,-0.00319579,0.0127832,0.00958738,24,-12,69.9,-1.14242,1.37115,9.87391
20054376,0.00319579,0.015979,0.00958738,24.9,-13.2,70.05,-1.2023,1.2969,9.9745
20077203,0.00532632,0.0127832,0.0106526,24.15,-12.45,70.05,-1.27176,1.32564,9.86433
20089377,-0.00639159,0.00639159,0.00852211,23.1,-12.9,69.45,-1.15919,1.36636,9.88828
20112203,0.00426106,0.00532632,0.00958738,24.3,-11.25,69.9,-1.19511,1.38312,9.93139
20124376,0.00213053,0.0117179,0.00852211,24,-11.25,69.9,-1.25739,1.37354,9.93139
20147216,0,0.00958738,0.00532632,24.9,-11.1,69.45,-1.17835,1.38312,9.96971
20160376,-0.00319579,0.0170442,0.00745685,24.75,-12,69.6,-1.25499,1.35678,9.88828
20183203,-0.00213053,0.015979,0.00532632,25.8,-12.75,71.4,-1.26936,1.2993,9.85236
20195378,-0.00426106,0.00745685,0,24.15,-12.15,69.75,-1.31726,1.37594,9.89786
20218209,0.00745685,0.0138484,0.00852211,24.3,-11.55,70.35,-1.22386,1.30409,9.91463
20231377,-0.00106526,0.0106526,0.00745685,24.9,-12.45,69.75,-1.20709,1.30888,9.89307
20254203,-0.00106526,0.00958738,0.00532632,23.1,-13.65,70.8,-1.2981,1.3951,9.93139
20266383,-0.00426106,0.00639159,0.00958738,24,-11.55,69.6,-1.21667,1.35678,9.90265
20289203,-0.00958738,0.00745685,0.00639159,24.9,-11.85,70.8,-1.19751,1.33762,9.90744
20301379,-0.00852211,0.00958738,0.00852211,24.75,-12,69.6,-1.21667,1.36157,9.94097
20324232,-0.00639159,0.00852211,0.00745685,24.75,-11.25,69.3,-1.23823,1.39989,9.8787
20337377,-0.00532632,0.0117179,0.0106526,24.9,-12.45,70.05,-1.17595,1.41426,9.9769
20360203,0.00639159,0.0170442,0.00745685,24.45,-11.4,70.5,-1.23583,1.33762,9.95774
20372377,-0.00426106,0.00958738,0.00532632,24.3,-11.25,69.6,-1.19272,1.39031,9.929
20385675,0.00106526,0.0117179,0.00958738,23.1,-11.85,69.45,-1.28134,1.36396,9.90505
20408203,-0.00745685,0.0127832,0.00426106,24,-13.5,69.6,-1.20469,1.37354,9.93379
20420378,0.00106526,0.0127832,0.0106526,23.85,-12.45,69.45,-1.29092,1.3448,9.96253
20443255,-0.00319579,0.00958738,0.00958738,24.45,-12.15,70.8,-1.2023,1.36636,9.85954
20456376,-0.00319579,0.0170442,0.00426106,24.45,-11.85,70.05,-1.30289,1.35917,9.88589
20479203,0,0.0117179,0.00852211,24,-11.55,71.4,-1.24541,1.37594,9.89068
20491377,0.00106526,0.0191748,0.00745685,23.85,-12.15,70.05,-1.346,1.31367,9.94816
20514213,-0.00213053,0.0181095,0.00958738,24.3,-11.55,70.95,-1.2981,1.37594,9.98887
20527377,-0.00639159,0.0138484,0.00745685,24,-12,70.65,-1.20948,1.34241,9.89068
20550203,-0.0106526,0.0106526,0.00852211,24.15,-11.1,70.5,-1.2023,1.38312,9.96253
20562420,-0.0127832,0.0117179,0.00532632,25.2,-12.45,69.75,-1.28852,1.27535,9.91463
20585203,-0.00639159,0.00958738,0.00639159,24.3,-12.3,70.95,-1.2023,1.37115,9.94816
20597377,-0.0106526,0.0191748,0.00958738,23.55,-11.25,70.95,-1.23104,1.33522,9.94337
20620203,-0.00319579,0.0138484,0.00532632,23.85,-11.85,69.45,-1.24062,1.38312,9.93139
20632374,-0.0138484,0.0138484,0.00426106,23.85,-11.4,70.05,-1.2502,1.32804,9.97211
20655203,-0.00639159,0.015979,0.00213053,23.4,-12.15,70.8,-1.24781,1.41426,9.90505
20667378,-0.0117179,0.00639159,0.00852211,24.15,-12.9,70.05,-1.25739,1.3448,9.9266
20690216,-0.00532632,0.0106526,0.00852211,24,-12.3,68.85,-1.32205,1.35199,9.89786
20702376,-0.00745685,0.00639159,0.00852211,23.85,-12.9,70.8,-1.24302,1.36157,10.0104
20725203,-0.00852211,0.00639159,0.00532632,24.15,-11.4,70.05,-1.29092,1.34001,9.95295
20737378,-0.00426106,0.0127832,0.00532632,23.4,-11.4,70.8,-1.27894,1.40228,9.87631
20760209,-0.0106526,0.0106526,0.00639159,24.3,-12,70.95,-1.30289,1.37594,9.8787
20772377,-0.00958738,0.00852211,0.00426106,24.45,-12.45,70.8,-1.2502,1.39989,9.95295
20795203,-0.00745685,0.00745685,0.00532632,24,-12,69.6,-1.22146,1.3472,9.929
20807383,-0.00639159,0.00958738,0.00532632,23.55,-13.5,69.9,-1.2526,1.39989,9.96971
20830203,-0.00319579,0.00852211,0.00532632,24.75,-12,70.65,-1.28613,1.36157,9.90505
20842379,-0.00852211,0.0106526,0.00319579,23.55,-12.3,70.35,-1.23583,1.35438,9.93858
20865216,-0.00745685,0.0117179,0.00852211,25.2,-12.9,69.75,-1.29331,1.37115,9.94337
20878377,-0.0106526,0.00639159,0.00213053,24.9,-11.4,69.75,-1.22625,1.38312,9.90744
20901203,-0.00319579,0.0117179,0.00745685,24.9,-11.85,70.05,-1.22865,1.36636,9.88349
20913377,-0.0106526,0.00852211,0.00745685,24.3,-11.25,70.35,-1.29331,1.35199,9.92421
20926678,-0.00745685,0.00639159,0.00426106,25.05,-12.75,70.65,-1.26697,1.31846,9.86433
20949203,-0.00213053,0.0106526,0.00532632,24,-11.55,70.35,-1.2502,1.32564,9.89068
20961379,-0.00426106,0.0149137,0.0127832,24.9,-12.9,69.45,-1.17116,1.40228,9.95055
20984235,-0.00852211,0.0138484,0.0106526,25.35,-12,69.9,-1.39869,1.2993,9.90505
20997376,0.00106526,0.00958738,0.00958738,24.15,-11.4,70.8,-1.26936,1.37115,9.93379
21020203,0.00426106,0.00213053,0.00958738,22.8,-12.15,70.5,-1.34121,1.30888,9.83799
21032377,-0.00745685,0.00852211,0.00745685,25.05,-12,70.35,-1.26457,1.37115,9.96492
21055213,0.0117179,0.00852211,0.00426106,23.55,-12.3,70.35,-1.22146,1.50287,9.96971
21068378,0,0.0149137,0.00958738,25.65,-12.15,70.5,-1.26218,1.38073,9.90984
21091203,0.00426106,0.00852211,0.0106526,24.45,-11.85,69,-1.30768,1.37354,9.96253
21103439,0.00213053,0.02024,0.0106526,24.45,-12.45,69.45,-1.28134,1.3472,9.93379
21126203,-0.00319579,0.00745685,0.00532632,24.9,-12.15,70.5,-1.26936,1.35199,9.91702
21139382,-0.0149137,0.00106526,-0.00106526,23.85,-11.4,69.75,-1.24302,1.35678,9.91223
21162216,0.00106526,0.0170442,0.00852211,24.3,-13.05,72,-1.35558,1.35917,9.94816
21175376,0.00319579,0.00426106,0.00532632,24.3,-12,69.6,-1.18314,1.35199,9.8811
21188373,-0.0117179,0,0.00639159,24.3,-11.55,70.35,-1.2023,1.4406,9.95295
21211203,-0.00426106,0.0138484,0.015979,24.15,-12.45,71.1,-1.346,1.35917,9.96013
21223373,-0.00852211,0.00319579,0,24.45,-12.15,71.1,-1.16877,1.43821,9.79248
21246203,-0.0170442,0.00639159,0.0138484,24.15,-11.85,69.45,-1.1999,1.3448,9.8787
21258372,0.00213053,0.00319579,0.00532632,24.75,-12,69.6,-1.24781,1.3472,9.94576
21281226,-0.00639159,0.00745685,0.00958738,25.35,-11.55,70.95,-1.21188,1.48132,9.85954
21294378,-0.00958738,0.00213053,0.00639159,24.75,-10.8,70.35,-1.29331,1.34001,9.94576
21317203,-0.00639159,0.0106526,0.0149137,24.75,-12.75,70.95,-1.17595,1.35917,9.94097
21329377,-0.00213053,0.00532632,0.00958738,24.75,-10.5,69.9,-1.28373,1.32804,9.8787
21352216,-0.0117179,0.00852211,0.0106526,25.35,-11.25,70.95,-1.2502,1.35438,9.93379
21364377,-0.00426106,0.00958738,0.00745685,24.9,-11.4,70.8,-1.24302,1.33283,9.8787
21387203,-0.00958738,0.0106526,0.00745685,24,-11.55,70.95,-1.23583,1.39031,9.92421
21399377,-0.00319579,0.00852211,0.00958738,25.05,-12.3,69.6,-1.19032,1.37354,9.9769
21422209,-0.00532632,0.0127832,0.00958738,23.85,-12.15,70.8,-1.25499,1.39989,9.91223
21434378,-0.0106526,0.015979,0.00639159,24.15,-11.85,71.1,-1.18074,1.35438,9.87631
21457203,-0.00958738,0.0149137,0.00426106,24,-11.55,69.3,-1.27894,1.37354,9.93139
21469382,-0.00958738,0.0117179,0.00958738,24.3,-12,70.35,-1.2502,1.41905,9.9266
21492203,-0.00426106,0.0127832,0.00532632,24.75,-12,70.65,-1.27415,1.38312,9.95295
21504382,-0.00319579,0.0149137,0.00958738,24.75,-12.75,70.35,-1.21428,1.33762,9.90505
21527203,-0.00639159,0.0106526,0.00639159,24.45,-12.45,70.8,-1.30289,1.39749,9.94337
21539377,-0.00958738,0.00852211,0.00532632,24.45,-11.85,70.05,-1.20709,1.3951,9.94816
21562203,-0.00745685,0.0138484,0.00319579,25.2,-11.85,70.8,-1.24302,1.36875,9.90984
21574378,-0.00426106,0.0149137,0.00532632,24.45,-12.45,70.5,-1.21667,1.41186,9.93858
21598210,-0.00639159,0.00958738,0.00745685,23.85,-11.4,70.8,-1.28613,1.40707,9.9266
21610377,-0.00958738,0.00852211,-0.00319579,23.25,-12.75,70.35,-1.21667,1.3951,9.96253
21633203,-0.015979,0.0117179,0.00532632,23.55,-12.3,70.35,-1.21906,1.42144,9.94097
21645383,-0.00745685,0.00958738,0.00745685,24.3,-11.55,71.7,-1.26218,1.39989,9.91702
21668203,-0.00958738,0.0138484,0.00319579,24.9,-13.2,70.8,-1.27176,1.35438,9.90744
21680379,-0.0117179,0.0106526,0.00426106,23.25,-12,70.95,-1.29331,1.30888,9.86673
21703253,-0.0127832,0.0127832,0.00426106,24,-12,69.9,-1.26457,1.33762,9.88349
21716378,-0.0138484,0.0170442,-0.00213053,24.3,-10.8,69.9,-1.28852,1.33762,9.92181
21729379,-0.015979,0.0106526,0.00319579,25.95,-11.85,70.5,-1.17116,1.3472,9.91223
21752203,-0.0170442,0.0149137,0.00106526,24,-11.55,70.65,-1.25978,1.40707,9.93618
21764428,-0.00852211,0.0170442,0.00213053,23.85,-12.15,68.7,-1.24781,1.35917,9.94097
21787203,-0.0106526,0.0149137,-0.00106526,24.9,-12.15,69.45,-1.24781,1.3927,9.93379
21800382,-0.00745685,0.0138484,0.00319579,24.75,-10.5,69.3,-1.18793,1.39749,9.96253
21823252,-0.00958738,0.02024,0.00213053,24,-12,69.3,-1.23823,1.37833,9.95774
21836377,-0.0127832,0.0191748,0.00426106,23.85,-12.9,71.1,-1.32924,1.28014,9.84517
21859203,-0.0106526,0.00639159,0.00106526,23.55,-12.75,70.95,-1.16877,1.34959,9.91463
21871378,-0.0149137,0.00106526,0.00319579,24.15,-12.15,71.1,-1.31008,1.40947,9.89307
21894216,-0.0181095,0.00106526,0.00426106,25.05,-12,69.3,-1.18553,1.40468,9.91702
21907377,-0.0191748,0.00639159,0.00639159,23.85,-12.9,69,-1.18793,1.33283,9.99606
21930203,-0.0170442,0.0117179,0.00639159,25.05,-12.75,71.4,-1.26936,1.39749,9.91223
21942421,-0.02024,0.00745685,0.00213053,24.15,-11.1,69.75,-1.22386,1.38791,9.94097
21965203,-0.0181095,0.0127832,0.0138484,24,-12.3,70.35,-1.21428,1.31127,9.929
21977376,-0.0191748,-0.00213053,0.00426106,25.8,-13.05,69.3,-1.22386,1.41905,9.90984
22000203,-0.0191748,0.00745685,0.00745685,23.85,-10.65,70.5,-1.22146,1.34241,9.94576
22013375,-0.0106526,0.00532632,0.00426106,24,-13.8,70.35,-1.25978,1.2993,9.94576
22026377,-0.0245011,0.00958738,0.00319579,23.55,-10.5,69.9,-1.26697,1.36157,9.9266
22049203,-0.0138484,0.0138484,0.00745685,25.05,-11.55,70.65,-1.25499,1.38312,9.96732
22061384,-0.0117179,0.00426106,0.00106526,23.85,-11.85,69.45,-1.17595,1.32085,9.96013
22084204,-0.00958738,0.0106526,0.00426106,24,-12,70.35,-1.23344,1.35678,9.95055
22096374,-0.00532632,0.0191748,0.00532632,23.55,-13.5,69.9,-1.27415,1.28014,9.89068
22119203,-0.0106526,0.00852211,0.00426106,24.15,-11.85,69.45,-1.18074,1.37594,9.93618
22131380,-0.00532632,0.0223706,0.00958738,24.45,-12.9,70.5,-1.23823,1.21787,9.929
22154203,-0.00213053,0.0106526,0.00852211,24.75,-11.55,70.65,-1.25499,1.38073,9.90984
22166376,0,0.0138484,0.00639159,24.3,-12.3,70.35,-1.26697,1.30888,9.92181
22189216,0,0.0149137,0.00852211,24,-12,70.65,-1.23823,1.29451,9.93618
22202378,-0.00426106,0.0149137,0.0106526,24.15,-12.45,69,-1.27176,1.36636,9.90984
22225203,0.00106526,0.00958738,0.00319579,24.3,-10.8,69.6,-1.27894,1.36396,9.88589
22238378,-0.00532632,0.00852211,0.00319579,24.75,-12,69.3,-1.29331,1.37354,9.93618
22261209,0.00319579,0.0106526,0.00426106,23.55,-12,69.6,-1.23583,1.41186,9.92181
22274379,-0.00426106,0.0138484,0.00639159,24.75,-12.3,70.35,-1.25978,1.32804,9.82122
22297203,0.00532632,0.00958738,0.00852211,24.45,-12.9,70.05,-1.31487,1.39989,9.94576
22309383,0.00852211,0.00958738,0.00639159,24.45,-11.1,69.45,-1.19272,1.36157,9.93618
22322379,0.00426106,0.015979,0.00745685,24.75,-12.3,70.95,-1.19751,1.37833,9.88589
22345203,0.00319579,0.0127832,0.00852211,23.55,-12.3,70.35,-1.26218,1.39989,9.89786
22357377,-0.00639159,0.0181095,0.00958738,25.05,-12,70.65,-1.21667,1.38073,9.99606
22380209,0.00213053,0.00745685,0.00958738,25.2,-11.85,70.05,-1.24062,1.37594,9.94097
22392382,-0.00852211,0.0149137,0.0106526,23.85,-12.45,70.05,-1.28373,1.3472,9.89786
22415203,-0.00532632,0.0138484,0.00958738,24,-11.55,68.85,-1.27415,1.34959,9.96732
22427382,-0.00639159,0.0106526,0.00319579,24.45,-12.9,70.5,-1.25739,1.37115,9.98648
22450203,-0.00852211,0.0181095,0.0106526,23.25,-13.05,70.95,-1.27655,1.35917,10.0008
22463378,-0.00958738,0.02024,0.00532632,23.85,-11.4,69.75,-1.31008,1.36157,9.93379
22486216,-0.00958738,0.0181095,0.0106526,24.45,-11.85,70.05,-1.24781,1.32085,9.89786
22498378,-0.0138484,0.0127832,0.00319579,23.55,-12.75,71.4,-1.26457,1.35678,9.98408
22521203,-0.00639159,0.0170442,0.00532632,23.55,-13.05,69.6,-1.22865,1.38073,9.97929
22533378,-0.0127832,0.0138484,0.00532632,25.2,-12.45,70.5,-1.26218,1.35199,9.94816
22556209,-0.0106526,0.00852211,0.00745685,25.2,-11.85,70.5,-1.24062,1.43102,9.92421
22568379,-0.0191748,0.00958738,0.00319579,23.25,-11.25,69.9,-1.27894,1.33762,9.90744
22591203,-0.0138484,0.00852211,0.00426106,23.25,-11.25,69.6,-1.32924,1.38073,9.91942
22603436,-0.00639159,0.0170442,0,24.75,-12.3,69.9,-1.29331,1.41186,9.94097
22626203,-0.0170442,0.00852211,0.00532632,24.3,-11.55,70.65,-1.23344,1.37594,9.91702
22638377,-0.0138484,0.0138484,0.00213053,24.3,-11.55,70.35,-1.26457,1.3448,9.88349
22661203,-0.00745685,0.0149137,0.00639159,25.2,-12.15,70.05,-1.26218,1.32325,9.91223
22674379,-0.0127832,0.0127832,0.00213053,25.35,-12.3,70.65,-1.2526,1.39749,9.92181
22697203,-0.0138484,0.015979,0.00213053,24.15,-11.4,71.55,-1.29571,1.35917,9.84757
22709377,-0.00958738,0.0127832,0.00852211,23.55,-12,70.95,-1.3005,1.39749,9.94576
22732216,-0.0149137,0.00745685,0.00319579,24.3,-12.3,69.3,-1.26218,1.2993,9.85954
22745379,-0.015979,0.00958738,0.00319579,25.35,-10.8,70.35,-1.25978,1.30409,9.89307
22768203,-0.0106526,0.0138484,0.00745685,24.15,-12.45,70.05,-1.22865,1.33762,9.87631
22780377,-0.0106526,0.00852211,0.00213053,24.9,-11.4,69.75,-1.23104,1.38073,9.88828
22803210,-0.00639159,0.0138484,0.00745685,24.75,-12.3,69.9,-1.28613,1.35438,9.91223
22815379,-0.00639159,0.00958738,0.00319579,24.3,-11.55,70.65,-1.30529,1.34241,9.90744
22828672,-0.0106526,0.0127832,0.00213053,23.85,-12.45,68.4,-1.28373,1.37833,9.91223
22851216,-0.00852211,0.00958738,-0.00532632,25.8,-11.25,69.9,-1.37953,1.31127,9.96013
22864379,-0.00639159,0.015979,-0.00106526,24.45,-12.45,69.75,-1.28613,1.2993,9.98648
22887203,-0.0149137,0.0117179,0.00426106,25.05,-12,69.6,-1.22146,1.35678,9.90984
22899377,-0.00426106,0.0106526,0.00639159,24.3,-12.75,70.65,-1.30289,1.35438,9.93618
22922209,-0.00213053,0.0170442,0.00426106,25.2,-11.85,70.8,-1.25499,1.32325,9.95295
22934382,-0.0138484,0.00958738,0.00426106,24,-12.75,69.9,-1.30768,1.3472,9.9266
22957203,-0.00745685,0.0117179,0.00319579,24,-12.75,70.95,-1.29331,1.39749,9.96732
22969382,-0.00745685,0.0149137,0.00426106,24.45,-12.9,70.05,-1.26936,1.3448,9.88589
22992203,-0.0106526,0.00852211,0.00213053,24,-13.05,72,-1.23344,1.33522,9.87391
23004378,-0.00852211,0.0106526,0.0117179,23.55,-11.55,69.9,-1.27655,1.34001,9.98408
23027216,-0.00426106,0.00958738,0.00639159,23.85,-11.1,70.05,-1.30529,1.30409,9.88589
23039378,-0.0117179,0.00852211,0.00319579,23.85,-12.45,70.5,-1.2981,1.3951,9.89786
23062203,-0.00958738,0.00106526,0.00532632,24.75,-11.55,69.9,-1.27415,1.37354,9.93379
23074378,-0.0117179,0.00426106,0.00745685,24.9,-11.85,69.75,-1.25739,1.40468,9.89547
23097209,-0.0181095,0.0106526,0.00213053,23.4,-11.85,70.8,-1.25978,1.31606,9.92181
23110379,-0.00532632,0.0138484,0.00426106,25.35,-13.05,69.9,-1.26697,1.2969,9.87631
23133203,-0.00745685,0.00745685,0.00319579,24.15,-11.1,70.5,-1.2526,1.33762,9.89307
23145383,-0.00639159,0.00745685,0.00852211,25.35,-12,70.65,-1.32684,1.31367,9.93379
23168203,-0.0117179,0.00426106,0.0106526,23.55,-12,70.65,-1.26936,1.28972,9.88589
23181377,-0.00639159,0.0106526,0.0117179,24.3,-13.05,70.65,-1.33163,1.32325,9.97929
23204238,-0.00426106,0.00745685,0.00958738,24.15,-12.45,70.05,-1.28373,1.30888,9.85715
23217379,-0.00958738,0.00426106,0.00532632,25.2,-12.15,71.1,-1.22865,1.33283,9.9266
23230377,-0.00958738,0.00426106,0.00532632,24.15,-12.15,68.7,-1.28613,1.36636,9.92421
23253203,-0.00639159,0.0106526,0.00213053,25.05,-12.3,70.65,-1.22865,1.3448,9.96492
23265399,-0.00532632,0.0127832,0.0106526,24,-11.55,70.35,-1.28373,1.32085,9.84278
23288203,-0.0127832,0.00852211,0.00639159,24.3,-12.3,70.95,-1.25499,1.37833,9.91463
23300378,-0.00426106,0.00745685,0.00532632,24,-11.55,68.85,-1.30289,1.30648,9.92181
23323250,-0.00213053,0.0117179,0.00639159,25.65,-12.9,69.75,-1.2502,1.28732,9.85236
23336378,-0.00852211,0.00852211,0.00745685,24.15,-11.1,70.5,-1.28134,1.30409,9.91223
23359203,-0.00532632,0.00639159,0.00745685,24.9,-12.15,69.75,-1.29331,1.31127,9.9266
23371378,-0.00745685,0.0127832,0.00745685,25.05,-11.55,69.9,-1.29571,1.31846,9.84996
23394222,-0.015979,0.0106526,0.0117179,23.55,-12.3,69.6,-1.25739,1.35438,9.96971
23407379,-0.00319579,0.0127832,0.00639159,25.05,-11.25,69.9,-1.27176,1.35199,9.929
23430203,-0.0106526,0.0117179,0.00639159,25.2,-12.15,69.45,-1.28852,1.34001,9.9266
23442418,-0.00852211,0.015979,0.00745685,24.45,-11.1,71.1,-1.2981,1.27056,9.86194
23465203,-0.00532632,0.00958738,0.00852211,25.35,-14.55,70.95,-1.20948,1.35917,9.91702
23477373,-0.0106526,0.00745685,0.00745685,24.45,-12.15,70.05,-1.2502,1.33522,9.9266
23500203,-0.00958738,0.00852211,0.00532632,24.9,-12.15,70.8,-1.29331,1.38791,9.92421
23513375,-0.00958738,0.00745685,0.00745685,24.45,-12.15,69.75,-1.2526,1.37833,9.92181
23526676,-0.00852211,0.0106526,0.00852211,24.15,-12.45,70.05,-1.20469,1.38552,9.9266
23549203,-0.0138484,0.00958738,0.00639159,25.05,-11.55,69.9,-1.2981,1.29211,9.90505
23561387,-0.00745685,0.0106526,0.00852211,24.3,-13.05,70.35,-1.28852,1.37594,9.92181
23584203,-0.00639159,0.0127832,0.0117179,25.35,-12,70.95,-1.31966,1.34001,9.91223
23596374,-0.0117179,0.0138484,0.00532632,23.1,-12.45,70.8,-1.32684,1.30888,9.91223
23619203,-0.00852211,0.0106526,0.00958738,24.45,-12.45,70.05,-1.28852,1.31367,9.93379
23632381,-0.00639159,0.0106526,0.00639159,24.45,-12.9,70.05,-1.26218,1.32564,9.89068
23655203,-0.0106526,0.00745685,0.00213053,22.8,-12.9,69.75,-1.23583,1.33762,9.85954
23667374,-0.0127832,0.0106526,0.0106526,25.8,-12.3,69.9,-1.36995,1.31127,9.94097
23690203,-0.00426106,0.0117179,0.00319579,23.55,-12.3,70.35,-1.38672,1.3472,9.97211
23702387,-0.00319579,0.00852211,0.00213053,25.35,-14.55,69.6,-1.27415,1.37594,9.89786
23725203,-0.0149137,0.00639159,0.00319579,24.9,-13.95,69.75,-1.28613,1.33762,9.96253
23737374,-0.00319579,0.015979,0.00639159,24,-13.05,69.9,-1.26457,1.30409,10.0008
23760209,-0.00213053,0.015979,0.00213053,24.75,-11.55,69.6,-1.22386,1.34001,9.89068
23773382,-0.0117179,0.00745685,0.00745685,24.75,-13.5,71.4,-1.28134,1.37354,9.96013
23796203,-0.00426106,0.0117179,0.00639159,24.45,-14.4,70.8,-1.22865,1.37833,9.93858
23808382,-0.00639159,0.00745685,0.00639159,22.35,-11.4,71.1,-1.31008,1.32564,9.94816
23831203,-0.0106526,0.0117179,0.00958738,24.9,-13.2,70.5,-1.29331,1.28972,9.90984
23844378,-0.00319579,0.0106526,0.0106526,25.2,-12.45,70.5,-1.29331,1.35678,9.90744
23867216,-0.0117179,0.00426106,0.00532632,23.25,-12.75,69.9,-1.27176,1.31846,9.89547
23880378,-0.00852211,0.0117179,0.00958738,24.9,-12.15,70.8,-1.26457,1.35678,9.94337
23893376,-0.00958738,0.0106526,0.00745685,25.05,-12.75,70.65,-1.3005,1.3448,9.90984
23916203,-0.00639159,0.00958738,0.00745685,24.75,-12,69.9,-1.24541,1.34959,9.94097
23928383,-0.00532632,0.0106526,0.00745685,24.3,-13.05,70.35,-1.28373,1.32804,9.91223
23951203,-0.0127832,0.0117179,0.00745685,24.9,-10.35,68.7,-1.26218,1.29451,9.91942
23963377,-0.0117179,0.0138484,-0.00106526,24.75,-12.3,69.6,-1.30768,1.37115,9.94097
23986230,-0.00532632,0.015979,0.00639159,23.55,-12.75,69.6,-1.2981,1.30169,9.94576
23999379,-0.00532632,0.00745685,0.00745685,24.15,-13.65,70.05,-1.25739,1.31606,9.84278
24022203,-0.0106526,0.0117179,0.00639159,24.15,-12.15,70.5,-1.28373,1.2514,9.89547
24035377,-0.00958738,0.0149137,0.00532632,23.85,-11.1,71.1,-1.28373,1.35678,9.9266
24058209,-0.00426106,0.00745685,0.00319579,23.4,-12.45,70.8,-1.31008,1.34241,9.88349
24070382,-0.00745685,0.00958738,0.00958738,24.3,-12.75,69.6,-1.27655,1.31606,9.88828
24093203,-0.0138484,0.00852211,0.0117179,24.3,-12.3,69.6,-1.29331,1.34959,9.95055
24105377,-0.00639159,0.00745685,0.00532632,24.9,-11.1,69.75,-1.32205,1.26098,9.94337
24128203,-0.00745685,0.00852211,0.00852211,23.55,-12,69.9,-1.27894,1.33283,9.93139
24140378,-0.00745685,0.00639159,0.00958738,25.05,-11.55,69.6,-1.30289,1.2993,9.90026
24163250,-0.00745685,0.00745685,0.00745685,24.9,-9.9,69.75,-1.31247,1.34001,9.90026
24176384,-0.00958738,0.00426106,0.00852211,24.3,-12,70.65,-1.33163,1.39749,9.91223
24199203,-0.0106526,0.00745685,0.00958738,24.45,-11.4,69.45,-1.30289,1.3472,9.94576
24211377,-0.00745685,0.0106526,0.00426106,23.4,-12.15,70.05,-1.23104,1.35917,9.89786
24224694,-0.00639159,0.00958738,0.00426106,25.05,-11.25,69.6,-1.26697,1.32085,9.8811
24247203,-0.00639159,0.0106526,0.00745685,25.65,-12.45,70.05,-1.30289,1.30409,9.89068
24260376,-0.00852211,0.00852211,0.00639159,25.65,-12.45,70.5,-1.26697,1.30888,9.92181
24283250,-0.00745685,0.00106526,0.00852211,24.9,-13.2,69.75,-1.26936,1.27535,9.91463
24296379,-0.00639159,0.00426106,0.00745685,25.05,-13.05,69.6,-1.28613,1.32564,9.91942
24319203,-0.00639159,0.00958738,0.00745685,24.3,-12,69.6,-1.27415,1.33043,9.89547
24331378,-0.00639159,0.0106526,0.00958738,25.2,-13.2,71.1,-1.27894,1.33283,9.95534
24354216,-0.00639159,0.00319579,0.00745685,23.55,-12.75,69.9,-1.22865,1.30409,9.91942
24367379,-0.00639159,0.00532632,0.00639159,24.45,-12.45,70.8,-1.21667,1.35438,9.93858
24390203,-0.00958738,0.0127832,0.00852211,24.15,-12.9,71.1,-1.29092,1.33043,9.88589
24403420,-0.00852211,0.0117179,0.00745685,24.75,-12.3,69.6,-1.2023,1.36157,9.93618
24416379,-0.00426106,0.00958738,0.0117179,24.3,-12,68.55,-1.25978,1.2969,9.89307
24439203,-0.00426106,0.0106526,0.00745685,25.05,-12,70.35,-1.26457,1.34241,9.96253
24451377,-0.00426106,0.0127832,0.0138484,24.75,-12,70.35,-1.22386,1.32085,9.95774
24474222,-0.00958738,0.00639159,0.00745685,24.15,-12.45,70.05,-1.27655,1.30888,9.90026
24487382,-0.00745685,0.00745685,0.00958738,25.95,-12.45,69.75,-1.28373,1.30648,9.89307
24510203,-0.00958738,0.0149137,0.00745685,23.55,-12.75,70.35,-1.3005,1.2993,9.87391
24522377,-0.00852211,0.00745685,0.0127832,22.8,-13.2,69.75,-1.27176,1.31846,9.92181
24545203,-0.0117179,0.0106526,0.00745685,25.65,-12.45,69.45,-1.29092,1.27535,9.929
24557378,-0.0106526,0,0.00319579,24.45,-11.85,70.5,-1.31966,1.30648,9.8811
24580204,-0.0117179,0.00745685,0.00639159,25.2,-12.45,71.55,-1.30529,1.34959,9.91942
24593384,-0.0138484,-0.00106526,0.00639159,24,-12,68.85,-1.31008,1.2993,9.98648
24616203,-0.00319579,0.0117179,0.0138484,24.3,-12.75,69.3,-1.29571,1.35917,9.93379
24628378,-0.00745685,0.00958738,0.00745685,24.9,-12.15,70.05,-1.31726,1.31846,9.89307
24651216,-0.00958738,0.00319579,0.00532632,24.45,-13.2,70.5,-1.3005,1.31606,9.91942
24664378,-0.00639159,0.00852211,0.00639159,22.95,-12,71.4,-1.26697,1.37594,9.8787
24687203,-0.00852211,0.00852211,0.00319579,24.15,-13.2,71.1,-1.21188,1.26577,9.88349
24699378,-0.0138484,0.00745685,0.00532632,24.9,-12.15,69.75,-1.23344,1.2993,9.929
24722209,-0.00532632,0.00958738,0.0106526,24.3,-10.5,70.65,-1.1999,1.3472,9.91942
24735379,-0.00958738,0.00319579,0.00532632,24.3,-12,70.35,-1.27894,1.31367,9.93139
24748377,-0.0138484,0.00639159,0.00532632,22.95,-12.75,70.95,-1.18793,1.33522,9.89068
24771216,-0.00213053,0.00958738,0.00426106,25.05,-12.75,70.95,-1.22386,1.33283,9.93858
24784379,-0.00319579,0.00852211,0.00852211,24.15,-12.15,69.75,-1.26936,1.36636,9.93139
24807203,-0.00852211,0.00852211,0.00213053,24.9,-12.45,69.75,-1.29571,1.38312,9.94337
24819377,-0.00639159,0.0127832,0.0106526,24.15,-13.65,70.05,-1.23344,1.30409,9.94576
24842210,-0.00958738,0.00745685,0.00958738,24,-12,70.35,-1.18793,1.31367,9.85236
24855379,-0.00852211,0.00319579,0.0117179,24.45,-12.9,68.7,-1.24781,1.32325,9.9266
24878203,-0.0106526,0.00639159,0.00532632,24.45,-11.85,70.05,-1.22625,1.30169,10.0008
24890382,-0.0138484,0.00852211,0.00958738,24.75,-12.75,70.95,-1.25499,1.36157,9.87391
24913203,0.00213053,0.00958738,0.00745685,24.75,-10.8,70.65,-1.27894,1.32564,9.94816
24925377,-0.00319579,0.00852211,0.00745685,24.9,-11.1,71.55,-1.23104,1.32804,9.89068
24948216,-0.00745685,0.0138484,0.00319579,24,-12.75,69.6,-1.22865,1.27774,9.9769
24961378,-0.00426106,0.00745685,0.00745685,23.85,-12.15,70.05,-1.26457,1.38312,9.94576
24984203,0,0.0149137,0.00639159,25.2,-11.4,69.75,-1.22386,1.30409,9.91223
24996377,-0.0117179,0.00532632,0.0117179,24.75,-12.75,69.9,-1.23344,1.28253,9.90505
25019209,-0.00319579,0.0170442,0.00958738,24.15,-13.95,70.5,-1.26218,1.31367,9.94576
25032382,-0.00745685,0.0106526,0.00639159,24,-12.3,70.65,-1.26218,1.33762,9.91463
25045377,-0.0106526,0.00958738,0.00745685,23.25,-12,70.35,-1.2981,1.30169,9.88828
25068216,-0.00532632,0.015979,0.00426106,25.05,-11.55,69.6,-1.29092,1.26816,9.95534
25081378,-0.00639159,0.00958738,0.00106526,24.15,-11.85,69.45,-1.24541,1.39031,9.98887
25104203,-0.0234358,0.0223706,0.00745685,23.85,-11.1,69.75,-1.26218,1.2969,9.94337
25116377,-0.0138484,0.0138484,-0.00106526,25.65,-12.15,70.8,-1.25978,1.3448,9.92181
25139209,-0.00958738,0.0170442,0.00639159,25.2,-12.9,69.45,-1.22865,1.34001,9.94097
25151382,0,0.0149137,0.00106526,24.45,-12.45,70.8,-1.2502,1.31606,9.83559
25174203,-0.0287621,0.0127832,0.00319579,25.05,-13.05,70.65,-1.35798,1.19392,9.79727
25186377,0.00745685,0.0127832,0.00745685,23.55,-12.75,71.7,-1.22386,1.34001,10.1206
25209203,0,0.015979,0.00532632,24.15,-12.45,70.8,-1.28852,1.31606,9.79488
25221378,-0.0234358,0.00745685,0.00106526,24.9,-12.9,70.05,-1.26936,1.28493,9.87391
25244250,0.00639159,0.0117179,0.00852211,24.3,-12.3,69.3,-1.20709,1.36875,10.0895
25257378,0,0.0170442,0.00958738,25.05,-12.75,69.9,-1.20469,1.32325,9.82362
25280203,-0.0223706,0.00319579,0.00213053,25.05,-13.05,70.35,-1.23344,1.28253,9.88589
25292378,-0.00106526,0.0181095,0.00532632,23.85,-12.15,71.1,-1.29331,1.31127,9.96971
25315213,-0.00958738,0.0127832,0.00532632,23.85,-12.45,71.1,-1.23344,1.30888,9.8811
25327379,-0.0117179,0.015979,0.00319579,24.75,-11.55,70.65,-1.30289,1.30169,9.94576
25350203,0.00319579,0.015979,0.00639159,25.35,-11.25,70.65,-1.23823,1.36157,9.92421
25362417,-0.015979,0.00958738,0.00745685,25.05,-12.75,69.6,-1.28134,1.29451,9.83799
25385203,-0.00532632,0.0138484,0.00852211,24.45,-12.15,70.05,-1.2526,1.34001,9.98408
25397373,-0.00319579,0.00852211,0.00426106,23.1,-12.9,70.05,-1.31487,1.2969,9.93858
25420205,-0.00426106,0.00745685,0.00852211,25.65,-12.15,70.5,-1.24541,1.28493,9.929
25433375,-0.00319579,0.0117179,0.00639159,24.9,-11.85,70.05,-1.2981,1.30648,9.94576
25446379,-0.00106526,0.00958738,0.0138484,25.05,-12.75,68.85,-1.23583,1.36396,9.90265
25469203,-0.0106526,0.00852211,0.0106526,23.4,-12.45,70.5,-1.33403,1.29451,9.92181
25481385,-0.00106526,0.0117179,0.00639159,24.45,-12.45,69,-1.31487,1.28732,9.94337
25504204,-0.00106526,0.0117179,0.0106526,25.05,-13.05,69.6,-1.26457,1.29211,9.93139
25516374,0.00639159,0.0106526,0.00213053,24.45,-11.4,70.8,-1.17595,1.37833,9.91942
25539203,0.00213053,0.00958738,0.00426106,24.3,-12,70.35,-1.16158,1.41665,9.98408
25551380,0.00532632,0.02024,0.0127832,24,-11.25,69.9,-1.39151,1.31127,9.87391
25574203,0.00213053,0.00532632,0.00106526,24.75,-12,70.95,-1.30529,1.54359,9.86433
25586376,0.00745685,0.00745685,0.0127832,24.3,-11.55,69.3,-1.35319,1.3448,9.87152
25609216,-0.0234358,0.0127832,-0.00106526,24.3,-12.75,69.3,-1.19511,1.31846,9.89786
25622378,-0.00852211,0.0191748,0.0308927,25.05,-12.75,70.35,-1.34121,1.24661,9.92421
25645203,0.00426106,0.00532632,-0.00213053,24,-12,69.9,-1.31487,1.26098,9.78051
25657378,-0.0287621,0.0106526,0.00213053,24.9,-13.2,70.05,-1.31966,1.37115,9.929
25680209,0.00532632,0.00639159,0.00958738,25.35,-12.3,69.9,-1.33882,1.32325,9.98169
25692379,-0.00213053,0.00213053,0.00745685,24.3,-12.75,69.9,-1.19751,1.33762,9.84038
25715203,-0.0191748,0.0117179,0.00213053,24,-10.8,69.9,-1.20709,1.3448,9.95534
25727383,0,0.00745685,0.00426106,24,-12,69.6,-1.31008,1.2993,10.0128
25750203,-0.00852211,0.00532632,0.00426106,24.9,-12.15,69.75,-1.24302,1.37354,9.87631
25762377,-0.0149137,0.0127832,0.0106526,24,-12,69.9,-1.31726,1.32325,9.9745
25785216,-0.0138484,0.00639159,0,25.35,-12.75,70.65,-1.17595,1.34241,9.90265
25797379,-0.00958738,-0.00106526,0.00106526,24.9,-12.15,70.8,-1.30768,1.19871,9.72063
25820203,-0.0170442,-0.00426106,0.00319579,25.05,-14.55,69.6,-1.25978,1.1532,10.0032
25832377,0.0340885,0.0245011,0.00852211,23.25,-10.8,68.85,-1.30289,1.40228,9.91463
25855213,-0.00958738,0.00532632,-0.0383495,25.05,-12,70.35,-1.15679,1.51485,9.74219
25867382,0.00106526,0.0308927,-0.0213053,23.1,-12.15,70.5,-1.17116,1.47653,10.1541
25890203,-0.0127832,0.0703075,-0.00106526,24.15,-12.9,70.8,-1.20469,1.43342,9.84996
25902413,0.0138484,0.0458064,-0.0330232,23.4,-12.45,70.8,-1.08734,1.5891,9.9745
25925204,-0.0276969,0.072438,-0.0149137,24.45,-11.85,69.45,-1.40109,1.19392,9.79009
25937373,-0.0213053,0.0692422,-0.0213053,24.15,-11.1,70.05,-1.32205,1.28493,9.735
25960205,-0.036219,0.100135,-0.0276969,24.9,-12.9,70.8,-1.47773,1.07177,9.7326
25973374,0.0106526,0.0617853,-0.076699,24.45,-11.1,70.8,-1.33882,1.52443,10.1445
25996203,0.0276969,0.0660464,-0.0447411,25.35,-12,69.9,-1.58311,1.66574,9.90026
26008374,-0.0468716,0.0596548,-0.0191748,24.45,-11.4,70.05,-1.49689,1.36875,10.305
26031203,0.0287621,0.0671117,-0.00745685,24.15,-11.4,69.45,-1.68609,1.12207,9.98887
26043374,-0.00426106,0.0191748,-0.0234358,24.45,-12.15,70.8,-1.1999,1.36636,9.8308
26066203,0.02024,0.036219,0.0223706,24.75,-10.05,69.6,-1.54239,1.17955,10.1062
26078376,0.0213053,0.0149137,0.00426106,25.35,-12,69.9,-1.12805,1.4885,9.75895
26101209,-0.0340885,0.0245011,0.00319579,24.9,-12.15,69.45,-1.47294,1.24421,9.79967
26114379,0.00106526,0.0170442,0.00106526,25.05,-12.3,68.85,-1.3939,1.2993,10.0487
26127377,0.015979,0.0181095,0.00958738,24.75,-11.55,70.95,-1.31966,1.35438,9.85236
26150216,-0.0213053,0.0127832,-0.00213053,24.45,-12.45,71.85,-1.34121,1.28732,9.85475
26162379,-0.0138484,0.00106526,-0.00532632,23.4,-11.4,69,-1.70046,1.15081,9.80685
26185203,-0.0106526,-0.0117179,0.00639159,24.9,-12.15,70.05,-1.46336,1.23703,9.89547
26197377,0.0170442,0.0138484,0.0330232,23.85,-12.15,71.1,-1.21428,1.24421,9.84038
26220209,0.00213053,-0.0447411,0.0149137,24.9,-12.15,70.8,-1.51605,1.28732,9.84757
26232382,-0.00319579,-0.0276969,0.0181095,25.35,-11.55,69.6,-1.44659,1.32085,10.0631
26255203,0.00106526,-0.0330232,0.0117179,25.35,-13.5,70.35,-1.30289,1.42863,9.81643
26267382,-0.0106526,-0.0255663,0.0181095,24.9,-12.45,71.1,-1.29092,1.39989,10.0104
26290203,0.00958738,0,0.0149137,24.75,-12,70.95,-1.3939,1.40707,10.0152
26302378,0.00426106,-0.00532632,0.0181095,24.75,-11.55,70.95,-1.23823,1.37115,9.88349
26325216,-0.00213053,-0.00319579,0.0234358,25.2,-11.4,70.5,-1.44659,1.33283,9.85236
26337378,0.0372843,-0.00426106,0.0276969,24.45,-11.85,71.85,-1.45617,1.24421,9.89068
26360203,0.0245011,-0.0383495,0.036219,24.3,-12.3,70.35,-1.35558,1.30888,9.84278
26372378,0.0340885,-0.0671117,0.0490022,24.45,-11.4,69.75,-1.57592,1.36157,9.99127
26395213,0.0426106,-0.0852212,0.0543285,24.9,-11.4,69.75,-1.36037,1.27774,9.77093
26407379,0.0330232,-0.0884169,0.0617853,24.75,-11.25,70.95,-1.20709,1.56515,9.93139
26430203,0.0639159,-0.0681769,0.0607201,24.3,-12,69.6,-1.08255,1.64418,9.96732
26442379,0.0234358,-0.0553937,0.0426106,25.05,-12,69.6,-1.37235,1.25619,9.84757
26465203,0.0245011,-0.052198,0.0479369,23.55,-12.3,69.9,-1.15679,1.56275,10.0224
26477377,0.0340885,-0.0756338,0.0639159,24.9,-12.15,69.45,-1.3939,1.35917,9.84038
26500204,0.0191748,-0.0841559,0.0585895,24.3,-12,70.35,-1.00591,1.68011,9.98648
26513379,0.0213053,-0.0703075,0.0820254,24.15,-12.15,70.5,-1.46336,1.02627,9.7326
26536203,0.0692422,-0.056459,0.072438,23.4,-11.1,70.5,-0.960403,1.65855,10.0511
26548377,0.0788296,-0.0308927,0.076699,24.3,-12,70.95,-1.02746,1.40468,9.79009
26571216,0.0681769,-0.02024,0.0756338,24.15,-10.65,69.45,-1.33642,1.27535,9.89307
26584379,0.127832,-0.04048,0.0426106,24,-11.25,70.35,-1.22625,1.79267,10.099
26607203,0.129962,-0.052198,0.0692422,23.85,-11.85,70.5,-1.24541,1.08375,9.58172
26619383,0.154463,-0.0500674,0.104396,25.05,-11.25,69.6,-1.11129,1.18194,9.86194
26632679,0.252468,0.00532632,0.0969391,23.85,-9.9,70.8,-1.14003,1.26816,9.83799
26655203,0.345146,0.0553937,0.115049,23.25,-10.5,71.7,-0.953218,1.60586,9.72303
26667377,0.42504,0.0969391,0.106526,22.95,-10.05,71.4,-1.1065,1.61065,9.92421
26690216,0.518784,0.127832,0.0852212,24,-10.5,70.95,-0.905317,1.39031,9.735
26703379,0.615723,0.162985,0.0841559,24,-9.3,70.35,-0.888552,1.4909,9.56016
26726203,0.661529,0.155529,0.0671117,25.05,-10.05,70.65,-1.28852,1.82141,9.84517
26738377,0.797883,0.167247,0.1012,23.85,-9.6,70.8,-0.974773,2.27168,10.0152
26761210,0.833037,0.164051,0.106526,25.05,-7.2,71.4,-0.962798,2.11839,9.74219
26774379,0.839428,0.204531,0.148072,23.55,-7.5,71.4,-1.19511,2.2597,10.1877
26797203,0.962999,0.236489,0.164051,23.85,-6.6,70.8,-1.14242,2.64769,9.84038
26809382,0.861799,0.276969,0.221575,25.05,-5.25,70.95,-1.43222,2.86085,10.1086
26832203,1.00987,0.30147,0.290817,26.1,-4.2,70.35,-1.53281,3.06443,10.3242
26845378,0.857538,0.338754,0.357929,26.25,-5.1,70.05,-1.4442,2.88959,9.53382
26868203,0.90867,0.289752,0.379234,27,-2.55,70.8,-1.60945,2.983,9.99606
26880377,0.957673,0.218379,0.372843,25.65,-1.05,72.6,-1.9735,3.04527,9.65836
26903203,0.955542,0.0436758,0.300405,26.4,0.15,70.95,-1.78908,3.56738,9.33743
26915378,0.922519,-0.00852211,0.274838,26.25,0.6,71.55,-1.54239,3.73264,9.72063
26938209,0.952346,-0.00106526,0.272708,27.15,1.95,70.65,-1.3005,3.68474,9.39491
26950379,0.988565,0.0745685,0.331297,26.85,2.4,71.4,-1.37953,4.05597,9.60567
26973203,0.935302,0.142745,0.339819,26.85,3.75,72.45,-1.21906,4.42001,9.88589
26985383,0.798948,0.183225,0.322775,25.65,4.05,71.85,-1.23823,4.46072,9.23444
27008203,0.768056,0.203465,0.209857,27,5.85,70.5,-2.51238,3.42608,10.0056
27021377,0.449542,0.145941,-0.0287621,27.75,7.35,70.8,-2.65847,2.56147,9.33743
27034377,0.481499,0.199204,-0.129962,27.75,8.1,71.1,-1.54239,2.3076,10.1829
27057209,0.13955,0.169377,-0.206661,26.4,6.75,71.4,-1.27655,1.51724,9.44281
27069382,0.0298274,0.0948085,-0.22051,27.9,9.75,69.9,-1.75076,1.89805,12.4629
27092203,-0.520914,-0.072438,-0.256729,27.15,10.05,68.85,-1.3005,1.41905,11.0547
27104415,-0.812797,-0.18216,-0.297209,27.15,8.7,69.3,-0.953218,0.777184,9.735
27127203,-0.7851,-0.189617,-0.257794,27.75,8.4,68.7,-0.969983,1.03345,9.70626
27139378,-0.971521,-0.229032,-0.295078,26.7,6.9,68.7,-1.18793,1.41186,9.44041
27162219,-1.1164,-0.235423,-0.354733,27.15,6.45,69.3,-1.89925,1.5867,9.6847
27175378,-1.09296,-0.248207,-0.441019,26.25,5.85,69,-2.06451,1.66574,9.26558
27198203,-1.10681,-0.257794,-0.537959,26.25,5.85,66.6,-2.15312,1.87889,9.36856
27210378,-1.14729,-0.251402,-0.616788,26.4,2.7,66.45,-1.99266,1.85734,9.64878
27233222,-1.17818,-0.231162,-0.607201,27.15,1.95,67.2,-1.61903,1.8765,10.1206
27245379,-1.18031,-0.186421,-0.540089,25.05,2.4,67.8,-1.53281,1.91003,10.0464
27268203,-1.21121,-0.104396,-0.459129,25.2,1.8,66.6,-1.7292,2.52315,11.1744
27280378,-1.32945,-0.186421,-0.400539,25.05,-1.95,65.7,-2.05493,3.23208,11.5696
27303203,-1.40402,-0.229032,-0.334493,24.45,-0.3,66.6,-1.8777,3.16502,10.7529
27315377,-1.33691,-0.131028,-0.259925,24.9,-1.35,64.95,-1.46336,2.99976,10.0727
27338203,-1.26234,0.00426106,-0.201335,23.85,-1.8,64.95,-1.88009,2.983,10.1709
27350383,-1.1622,0.0660464,-0.217314,23.25,-1.95,64.05,-2.28006,2.95426,10.0128
27373203,-1.09722,0.0681769,-0.291882,24.15,-2.55,64.95,-2.25611,2.74829,9.48113
27385377,-0.952346,0.0884169,-0.332363,24.75,-4.2,64.65,-1.59029,2.50878,9.3039
27408216,-0.782969,0.122505,-0.297209,25.05,-4.5,63.6,-0.907712,2.27407,9.59609
27421379,-0.829841,0.0841559,-0.190682,25.35,-4.2,63.6,-1.04423,2.33155,10.8175
27444203,-0.802144,0.0490022,-0.0671117,24.15,-6.15,62.85,-0.797542,2.60698,11.4426
27456377,-1.00987,0.0980043,0.0287621,25.35,-5.7,63.3,-1.16398,2.30521,10.5278
27479209,-1.06953,0.112918,0.0298274,25.05,-6.45,64.05,-1.89446,2.13756,10.3338
27491382,-0.911866,0.0905475,0.0138484,25.05,-7.5,63.3,-2.31838,1.41426,8.8225
27514203,-0.90867,0.0223706,-0.0703075,25.2,-7.35,63.15,-1.96631,1.41905,8.76502
27526382,-0.813862,0.0234358,-0.076699,26.7,-8.1,62.4,-2.11241,1.34959,10.4104
27549203,-0.831971,-0.00106526,-0.0788296,27.3,-7.65,62.85,-1.35798,1.28732,9.54819
27561378,-0.953412,0.0308927,-0.0170442,27,-9.6,61.8,-1.27176,0.432301,8.80813
27584240,-0.773382,0.036219,0.076699,27.15,-8.25,62.25,-0.349673,0.96639,9.47634
27597378,-0.595483,0.106526,0.238619,25.35,-10.5,62.25,-0.740061,0.496967,8.54468
27610376,-0.583765,0.0809601,0.298274,25.8,-9.75,62.55,-0.876577,0.925675,8.75544
27633203,-0.498544,0.0798948,0.411192,26.4,-10.5,63.6,-1.31008,1.03585,10.875
27645406,-0.548611,0.092678,0.439954,26.25,-10.35,61.35,-1.07057,1.45258,9.9769
27668203,-0.791491,0.0660464,0.398409,26.1,-10.8,61.2,-1.85854,1.03106,8.53749
27680377,-0.477238,-0.015979,0.312122,27.9,-12,62.25,-2.29203,0.753234,7.93155
27703254,-0.24075,-0.0532632,0.209857,27.15,-12.75,60.9,-2.25371,0.777184,7.15556
27716382,-0.134223,-0.123571,0.131028,26.4,-11.55,61.2,-2.32556,1.55317,9.55777
27739203,-0.227967,-0.169377,0.0852212,27.15,-13.05,60.9,-1.8274,1.5891,9.89786
27752377,-0.288687,-0.0916127,0.076699,26.7,-10.35,61.8,-1.66454,1.44779,8.35307
27776213,-0.0820254,-0.0287621,-0.04048,25.8,-12,60.9,-2.66805,1.39989,7.06695
27788382,0.249272,-0.0937433,-0.238619,26.4,-12.3,60.9,-3.15185,1.82381,7.11006
27811203,0.426106,-0.167247,-0.430367,25.95,-12.15,61.35,-2.71356,1.71364,7.36633
27823415,0.568851,-0.115049,-0.502805,26.25,-11.85,61.35,-1.41546,0.652643,9.0596
27836676,0.898018,0.237554,-0.0553937,27.15,-12,60.9,-3.30273,-2.11839,15.9908
27859203,0.379234,-0.0426106,-0.122505,27.3,-9.9,61.35,0.0359253,-4.79124,13.1886
27871377,-0.288687,0.00958738,-0.0276969,26.1,-10.8,62.25,2.17468,-2.34832,7.93395
27894222,1.05248,0.143811,0.267381,25.8,-10.05,61.95,1.69807,-1.91961,4.79886
27907379,0.74462,0.285491,0.376038,26.85,-8.7,60.45,0.689766,-1.14362,10.7385
27930203,0.870321,0.305731,0.432497,25.2,-9.9,62.1,-2.43334,-0.209564,12.1995
27942408,0.821319,0.246076,0.411192,27.15,-8.25,61.5,-3.57337,0.530497,9.62004
27965203,0.725445,0.120375,0.235423,27.9,-7.95,62.25,-4.9074,0.849034,11.1361
27978374,0.653007,-0.0213053,0.0809601,27.75,-6.9,62.1,-3.47517,1.09093,11.2654
28001203,0.635963,-0.0820254,0.0532632,27.9,-4.5,61.5,-1.79147,0.726888,10.044
28014378,0.411192,-0.116114,0.0553937,28.8,-5.55,60.75,-1.38911,0.94244,11.1026
28037203,0.54222,-0.0798948,0.105461,27.75,-6.9,60.75,-1.28852,-0.135319,9.21528
28049378,0.591222,-0.0777643,0.0777643,26.1,-5.25,60.15,-1.03704,-0.154479,8.0513
28072216,0.858603,-0.0223706,0.128897,27.15,-3.75,60.9,-1.63101,0.911305,11.3205
28085378,0.592287,-0.0575243,0.142745,27.15,-3,59.1,-1.6334,1.84057,11.0259
28098374,0.336624,-0.143811,0.0490022,28.2,-3,59.4,-2.40939,1.37833,10.9205
28121203,0.458064,-0.0948085,0.0873517,27.15,-3,60.45,-2.04295,1.14123,10.9086
28134379,0.227967,-0.185356,-0.00639159,28.05,-2.55,60.75,-1.78189,1.80704,10.4391
28157203,0.282295,-0.156594,0.00213053,28.2,-1.95,59.1,-1.346,1.21787,10.6691
28169377,0.22051,-0.181095,0.00745685,28.05,-3.3,60.75,-0.574805,1.39749,9.39012
28193221,0.224771,-0.169377,0.0394148,27.3,-1.05,61.05,-1.56874,0.825084,10.2212
28206378,0.313188,-0.140615,0.0245011,27.9,-0.9,60.45,-0.799937,1.57233,10.1086
28229203,0.14168,-0.102265,0.0308927,26.85,-0.45,60.9,-1.51844,1.21547,10.3218
28241387,0.177899,-0.0671117,0.0181095,27.15,-1.65,59.4,-1.08973,1.443,10.3026
28264204,0.102265,-0.0553937,0.0266316,27.9,-0.15,59.4,-1.59748,1.15081,10.1158
28276374,0.18216,-0.0458064,0.0191748,27,-1.35,59.7,-1.4418,0.731678,9.68231
28299203,0.152333,-0.0308927,0.0223706,27.3,-0.6,60.75,-1.03704,1.58191,10.6451
28311380,0.110787,-0.0628506,0.0127832,27,0,60.3,-0.969983,1.54599,9.72782
28334203,0.118244,-0.076699,0.0500674,28.65,-0.9,60.45,-1.72202,1.03345,9.88589
28346374,0.166181,-0.131028,0.02024,25.35,-0.9,60.9,-1.27176,1.79507,10.2308
28369216,0.0745685,-0.0490022,0.0426106,26.25,0.3,59.7,-0.895737,1.64179,10.1182
28382378,0.0479369,0.00745685,0.0255663,25.65,-0.6,61.05,-1.25499,1.51245,10.2859
28395376,0.0532632,0.0266316,0.02024,25.8,0.45,59.4,-1.23344,1.55557,9.96013
28418203,0.0500674,0.0479369,-0.015979,27.15,0.15,60.15,-1.64059,1.22745,9.94576
28430380,0.0372843,0.0820254,0.0170442,26.1,0.45,61.5,-1.83698,1.5388,10.4248
28453203,0.052198,0.0617853,-0.0575243,26.1,0.15,60.15,-1.4418,1.42623,10.2044
28465376,-0.015979,0.0511327,-0.105461,26.1,-0.45,60.45,-0.919688,1.71843,10.0775
28488216,-0.0181095,0.0958738,-0.0181095,27.15,0.45,59.4,-1.59508,0.662223,9.7326
28501378,0.0245011,0.04048,0.0170442,26.1,-0.15,60.9,-1.26697,1.48371,9.79967
28524203,0.0543285,0.0319579,0.00532632,25.65,0,59.25,-1.63101,1.86692,9.91942
28536378,0.0447411,0.0745685,0.0170442,27.75,0,60.3,-1.346,1.69448,10.044
28559209,-0.0149137,0.0234358,-0.0138484,26.7,0.6,60.3,-1.43701,2.22378,9.79967
28571379,-0.00213053,0.0255663,-0.00852211,27,-0.3,61.35,-1.16398,1.59628,9.84517
28594203,-0.0436758,0.0234358,-0.0181095,27.9,0.45,59.85,-1.30768,1.6849,9.73021
28606383,-0.0170442,0.133158,-0.00426106,28.5,0.6,60,-1.73639,0.34129,9.91942
28629203,0.0553937,0.0255663,-0.0351537,26.4,-0.15,60.15,-1.04423,1.40947,10.2308
28641377,0.0117179,0.0745685,0.0266316,26.7,0,60,-1.9256,1.57712,9.79248
28664237,-0.0319579,0.00958738,-0.0266316,27.15,0.45,60.45,-1.35319,1.40468,9.95295
28677379,0.00532632,0.0127832,0.00532632,26.85,0.15,61.2,-1.09692,1.45737,10.1445
28700203,-0.00319579,-0.0468716,-0.00319579,26.7,-0.3,60,-1.56634,1.46455,9.80685
28712377,0.00958738,-0.0383495,0.00639159,28.5,1.35,61.05,-0.895737,1.50527,9.735
28735214,-0.0319579,0.0170442,0.00745685,26.4,1.65,59.1,-1.35798,1.40228,9.89068
28748382,0.0245011,0.0490022,0.0127832,25.95,0,59.25,-1.95194,1.06459,9.99127
28761377,-0.00639159,0.0394148,0.00319579,27.75,1.35,59.7,-1.46336,1.46695,9.89068
28784237,-0.00745685,0.0298274,0.00958738,28.05,0.6,61.35,-1.00351,1.80704,10.0607
28797378,0.0106526,0.0276969,0.00426106,28.65,-0.15,59.1,-1.36995,1.55078,9.86433
28820203,-0.0191748,0.0255663,0.0106526,27,0,61.05,-1.40827,1.36396,9.88349
28832377,0.0117179,-0.00213053,-0.00958738,26.4,-0.9,59.85,-1.43222,1.48371,9.9769
28855213,-0.0223706,0.0308927,0.0106526,27.3,1.05,61.8,-1.38911,1.56515,9.90026
28868382,-0.0372843,0.0394148,0.0170442,27.15,-0.45,60.15,-1.50168,1.4909,9.84517
28891203,-0.0138484,0.0276969,0.00319579,27.75,-0.6,59.7,-1.35558,1.42623,10.1254
28903414,-0.04048,0.0447411,0.00852211,27.9,0.45,59.4,-1.52084,1.12446,9.48831
28926203,-0.0458064,0.0149137,0.00958738,27.3,-0.3,60,-1.33882,1.34241,10.044
28938378,0,0.0276969,0.0191748,26.85,0.9,59.4,-1.28373,1.42863,9.9266
28961203,-0.0426106,0.0181095,-0.00426106,28.05,1.8,59.25,-1.36995,1.36636,9.6368
28974378,-0.0468716,0.0170442,0.0138484,26.1,0.15,60.45,-1.48012,1.22745,9.94337
28997203,0.00532632,0.00319579,0.00852211,27.15,-0.45,60.15,-1.3963,1.56036,9.95534
29009378,-0.015979,0.0117179,0.0149137,27.6,-0.9,59.4,-1.3939,1.32564,9.69668
29032222,-0.0213053,0.0106526,-0.00213053,27.75,0.6,60,-1.22865,1.44779,9.93139
29045378,0.0138484,0.0181095,-0.00639159,27.6,0.9,61.2,-1.2502,1.47653,9.99606
29058374,-0.00319579,0.04048,-0.00319579,28.65,-0.45,60.45,-1.30289,1.44539,9.74698
29081203,-0.0191748,0.00745685,-0.0181095,27.3,-0.3,59.7,-1.73639,1.21308,9.84278
29094379,0.0255663,0.00319579,0.015979,27.15,0.15,59.85,-1.28134,1.53162,9.97211
29117203,0.0117179,0.0181095,0.00213053,27.75,-0.3,59.25,-1.30529,1.43821,9.81164
29129377,-0.0138484,0.0372843,-0.00319579,27.15,0.9,60.15,-1.31008,1.38791,9.79009
29152216,0.0585895,0.0372843,-0.00319579,27.9,-1.65,59.4,-1.59748,1.26337,10.1134
29165379,0.036219,0.0383495,0.0287621,27.75,0.6,59.25,-1.65735,1.27774,9.76135
29188203,0.00532632,-0.00958738,0.00639159,27.3,-1.05,59.25,-1.35319,1.66095,9.85236
29200377,0.0479369,-0.00319579,0.0266316,26.1,-0.9,59.85,-1.152,1.52443,9.97929
29223210,0.0127832,0.0223706,0.0245011,28.05,0.6,59.7,-1.5855,1.36396,9.79727
29235374,0.0191748,0.00745685,0.00852211,27.6,1.2,59.4,-1.37235,1.50048,9.96492
29258203,0.015979,0.00532632,0.0181095,28.2,0.15,60.45,-1.4897,1.32325,9.74698
29270380,0.00426106,-0.0255663,0.0255663,27.75,1.35,60.3,-1.45617,1.52683,9.88349
29293203,0.0308927,-0.036219,0.0234358,27.3,0.6,59.7,-1.4418,1.46695,10.0032
29305374,0.00426106,-0.0319579,0.036219,28.2,0.45,60.15,-1.38672,1.52204,9.85475
29328216,0.00319579,-0.052198,0.0298274,26.85,0.9,59.4,-1.50886,1.3951,9.8811
29341378,0.00532632,-0.0191748,0.0266316,27,0.6,60.3,-1.3963,1.62263,9.93858
29364203,-0.0245011,-0.00426106,0.02024,27.6,-0.15,60.45,-1.43462,1.63939,9.82841
29376377,0.0255663,0.0319579,0.0170442,26.25,2.1,59.7,-1.38432,1.53401,10.1853
29399209,0.0266316,0.0585895,0.00426106,27.75,1.05,60,-1.21906,1.36636,9.61285
29411382,0.0191748,0.0617853,0.00745685,28.05,-0.3,59.25,-1.63819,1.35917,9.97211
29424674,0.0809601,0.015979,0.0106526,28.5,0,59.25,-1.32445,1.42863,9.9266
29447216,0.0692422,-0.00532632,0.0500674,27.9,-0.9,59.85,-1.31008,1.68969,9.77811
29460379,0.0873517,-0.0276969,0.0372843,28.2,1.2,60.15,-1.36756,1.69448,9.90265
29483203,0.072438,-0.0149137,0.052198,27,0.6,60.75,-1.38672,1.4406,9.89786
29495377,0.0532632,-0.0245011,0.052198,27.75,1.35,59.25,-1.346,1.71364,9.94576
29518203,0.0351537,-0.0628506,0.036219,27.3,1.05,58.95,-1.59029,1.72082,9.95774
29530378,0.0308927,-0.0756338,0.0330232,26.7,0.3,58.95,-1.01788,1.71843,9.85715
29553203,-0.0170442,-0.0607201,0.0607201,27.6,1.2,60.15,-1.12326,1.4909,9.73021
29565401,0.0319579,-0.0809601,0.0575243,28.5,0.6,60,-1.09213,1.76633,10.1086
29588204,0.0500674,-0.0415453,0.0862864,26.85,0.45,59.4,-1.33642,1.55317,9.86433
29600374,0.0575243,-0.04048,0.0394148,27,0.3,60.75,-1.22625,1.74717,9.79248
29623241,0.0490022,-0.0426106,0.0511327,26.4,-0.9,60.15,-1.30529,1.53641,9.89068
29636378,0.0426106,-0.0117179,0.0596548,27.3,1.35,59.7,-1.21428,1.67053,9.89786
29659203,0.0713727,-0.04048,0.0383495,25.95,2.1,60.75,-1.30768,1.70645,9.94576
29671377,0.0596548,-0.0308927,0.0543285,25.95,1.35,60,-1.24541,1.81902,9.92421
29694209,0.0745685,-0.0458064,0.0532632,26.4,-0.15,60.9,-1.26936,1.47413,9.72782
29707382,0.103331,-0.0287621,0.056459,25.95,1.05,58.95,-1.19751,1.67292,9.92181
29730203,0.137419,-0.00532632,0.0585895,26.7,1.05,61.35,-1.38911,1.5867,9.75656
29742489,0.18003,0.00639159,0.0490022,27.15,1.65,61.2,-1.06099,1.54599,9.89547
29765203,0.237554,0.0692422,0.0777643,26.85,0.45,59.4,-1.46575,1.51964,9.73979
29777375,0.302535,0.072438,0.0330232,27.15,1.95,60.45,-1.31726,1.65855,9.75895
29800203,0.357929,0.120375,0.0436758,28.05,3.3,59.25,-1.01549,1.75914,9.84278
29813376,0.423975,0.149137,0.0543285,27.15,1.95,59.85,-1.40348,1.52922,9.66554
29826377,0.531567,0.147006,0.0703075,27.15,1.65,59.85,-1.02267,1.47413,9.68231
29849203,0.684965,0.160855,0.0937433,28.65,2.4,60.45,-1.2502,1.32085,9.52424
29861390,0.915062,0.184291,0.188552,26.4,3.45,60.45,-1.27894,1.41905,9.71105
29884203,1.1931,0.172573,0.259925,27.15,4.2,59.85,-0.519719,1.50048,9.74458
29896669,1.49989,0.322775,0.334493,27.3,5.1,59.7,-1.83459,1.37594,9.51466
29919203,1.87167,0.383495,0.455933,28.5,6.15,60.75,-1.13284,2.0178,9.93379
29931380,2.13159,0.547546,0.558199,28.2,8.25,58.8,-1.41067,2.76505,10.5421
29954203,2.36063,0.628506,0.776578,28.05,9.6,57.6,-2.07648,3.34225,10.5565
29966374,2.55663,0.609331,0.932106,29.7,11.25,58.35,-2.80457,4.36013,11.3181
29989220,2.45757,0.400539,0.961934,29.1,12.9,57.6,-2.80936,4.34576,10.9014
30002377,2.41815,0.169377,0.966195,28.65,17.1,58.05,-2.32077,5.03792,11.5121
30025203,2.20723,0.133158,0.909736,29.25,17.85,56.25,-1.91841,6.11329,10.7433
30037374,1.91854,0.0628506,0.788296,29.85,20.25,54.45,-1.42743,5.43789,10.2212
30060209,1.86634,-0.0585895,0.727576,28.5,22.5,55.05,-1.5879,4.99002,8.37702
30073378,1.54037,-0.112918,0.536893,28.2,23.4,55.95,-3.10395,3.16262,11.8043
30096203,1.02798,-0.0788296,0.332363,27.6,25.35,55.95,-1.6813,2.9806,10.5517
30108382,0.565655,0.0990696,0.237554,28.05,26.25,55.05,-2.20581,1.96272,12.4318
30131203,0.38243,0.100135,0.113983,28.95,27.45,54.6,-0.811912,1.74717,5.90776
30143378,-0.18216,0.0532632,0.04048,28.8,27.75,55.8,-1.19751,1.68729,9.66076
30166220,-0.266316,0.04048,0.0298274,27.3,26.25,56.1,-1.52802,1.70885,11.3157
30179375,-0.817058,-0.0703075,-0.0543285,28.2,28.2,56.25,-1.27415,1.33522,8.21656
30192377,-1.20268,-0.134223,-0.18003,27.75,28.5,56.1,-1.6837,1.06459,8.38181
30215203,-1.14196,-0.072438,-0.254598,28.05,27,56.85,-2.21539,1.31367,9.00931
30227383,-1.36567,-0.0873517,-0.423975,28.05,27.3,57.15,-2.4022,1.65855,8.16387
30250203,-1.63092,-0.12144,-0.614658,26.85,25.35,57,-2.56507,2.03936,9.32306
30272203,-1.67033,-0.109722,-0.70414,28.2,24.9,58.8,-2.14354,2.46088,10.0535
30284411,-1.85995,-0.0948085,-0.72438,29.25,24.6,58.8,-1.66454,3.22729,10.3433
30297377,-2.22427,-0.11931,-0.714792,29.25,23.4,59.4,-2.12678,3.9913,11.6151
30320203,-2.31802,-0.106526,-0.689226,30.45,21.15,59.4,-2.1172,4.13021,10.8104
30342229,-2.39471,-0.0383495,-0.690291,29.7,19.05,60.45,-2.25371,4.15416,9.48352
30355377,-2.32547,0.00745685,-0.714792,30,17.1,60.9,-2.46927,4.24278,10.2954
30368373,-2.25303,0.0298274,-0.742489,29.55,14.7,62.4,-2.80696,4.61401,11.4139
30391203,-2.36063,0.0223706,-0.804275,29.7,13.5,61.95,-2.00463,4.70262,10.9469
30403410,-2.32441,0.0628506,-0.761664,30,12,63.3,-1.62861,5.04511,10.9876
30426203,-2.16142,0.125701,-0.646616,30,9.3,64.65,-1.50647,5.41394,10.3745
30438376,-2.01122,0.164051,-0.556068,29.85,8.4,63.9,-1.43941,5.35407,9.38772
30461203,-1.74597,0.173638,-0.48363,28.65,5.7,64.65,-1.45617,5.11217,9.40928
30474378,-1.42852,0.149137,-0.436758,29.55,6.15,65.55,-1.71723,4.67867,9.19373
30497203,-1.26873,0.056459,-0.413323,30.6,3.6,66,-1.75555,4.43438,9.72542
30509378,-1.12492,-0.0191748,-0.365386,30.45,1.95,65.7,-1.67172,4.59724,10.9205
30532220,-1.25169,0.015979,-0.327036,29.7,0.15,66.15,-1.68609,4.29068,11.0427
30545375,-1.36567,-0.0191748,-0.357929,30.15,-0.6,66.6,-2.05493,3.65839,9.68231
30568203,-1.14303,-0.0490022,-0.34408,30.75,-3,67.2,-1.80584,2.85127,8.71233
30580375,-0.917193,-0.0117179,-0.289752,30,-2.7,67.5,-1.46096,2.57345,8.22614
30603209,-0.779773,0.0213053,-0.238619,30.45,-4.95,66.45,-1.73878,2.39143,8.98775
30615372,-0.672182,0.00852211,-0.204531,29.1,-6.9,66.6,-2.05253,2.19504,9.21528
30628674,-0.591222,-0.0138484,-0.214118,28.95,-6.45,66.75,-2.0214,1.922,8.6285
30651220,-0.586961,-0.0255663,-0.26312,30,-6.75,66.75,-2.13157,2.23575,9.47873
30663375,-0.545415,0.00426106,-0.272708,29.1,-6.9,66.3,-1.89686,2.0202,9.70626
30686203,-0.530502,0.0809601,-0.224771,28.05,-9.6,67.95,-1.00591,1.62981,8.32433
30698374,-0.355798,0.137419,-0.122505,28.95,-10.05,66.75,-1.00112,1.33043,7.98664
30721210,-0.253533,0.117179,-0.0351537,29.1,-10.35,66.6,-1.08973,1.56994,8.93746
30733377,-0.223706,0.0841559,0.0703075,29.1,-10.35,67.35,-0.744851,1.83099,8.57821
30756203,-0.174703,0.108657,0.205596,28.65,-11.55,67.2,-0.56762,1.95553,8.03214
30768382,-0.00319579,0.160855,0.406931,29.55,-10.65,66.3,-0.0910107,1.90763,7.68007
30791203,0.414388,-0.363255,0.22051,28.2,-11.55,67.5,-5.47262,0.753234,4.71025
30803378,1.46474,-0.245011,0.446346,30.45,-11.25,66.15,-0.840652,-1.52922,13.3299
30826220,0.315318,0.0884169,0.383495,28.65,-10.05,67.5,-1.68609,-1.57473,8.37463
30839375,0.657268,-0.0106526,0.30147,29.1,-9.9,66.6,-1.2526,-0.798739,12.9922
30862203,0.539024,0.214118,0.290817,29.25,-8.7,68.55,-1.22625,-0.164059,9.48831
30874375,0.453803,0.292948,0.224771,30.9,-8.1,67.65,-1.35798,-0.772394,9.46436
30897209,0.68603,0.34408,0.278034,29.85,-8.4,69,-2.53633,-0.767604,10.1398
30910377,0.678573,0.205596,0.289752,30,-5.25,68.55,-4.02124,-0.300575,9.48592
30933203,0.822384,0.0447411,0.187487,30,-6,68.85,-4.69663,0.329315,9.88828
30945383,0.830906,-0.103331,0.0692422,31.8,-5.7,68.85,-3.70989,0.516127,9.81643
30968203,0.773382,-0.135289,0.0223706,30.45,-4.2,69.9,-3.20693,1.29451,12.3168
30980377,0.417584,-0.197074,-0.0905475,31.95,-4.8,69,-1.54958,1.08375,10.1206
31003240,0.585895,-0.172573,0.0191748,30.6,-2.55,69,-0.876577,1.03106,10.705
31016377,0.434628,-0.248207,0.0500674,30.9,-2.1,70.5,-2.03098,0.549657,10.3457
31039203,0.426106,-0.243946,0.0713727,30.45,-4.2,68.85,-2.33514,0.798739,10.0511
31051374,0.427171,-0.32171,0.0149137,29.7,-1.95,69.6,-1.78189,0.425116,9.86194
31074209,0.334493,-0.318514,0.0479369,29.85,-1.35,70.5,-1.80105,0.501757,9.79488
31086378,0.454868,-0.372843,0.0458064,29.7,-1.95,70.95,-0.934058,0.820294,10.0056
31109203,0.44528,-0.354733,0.0628506,29.55,0,70.5,-1.4418,1.62502,10.5924
31121407,0.309992,-0.343015,0.0788296,28.95,-0.9,70.95,-1.50886,1.5412,10.2619
31134677,0.288687,-0.349407,0.00639159,28.5,0.6,71.85,-1.37953,1.74477,10.6403
31157203,0.278034,-0.234358,0.0649811,29.25,0.45,72,-1.07776,1.05501,11.0355
31169377,0.147006,-0.210922,0.0138484,30.15,0.3,71.55,-1.43941,1.03345,9.22486
31192220,0.218379,-0.205596,0.00958738,28.95,1.65,70.95,-1.09692,1.03585,10.4104
31205377,0.247141,-0.164051,0.0106526,28.5,1.05,71.85,-1.00112,1.25858,9.60327
31228203,0.0948085,-0.076699,0.0479369,27,0.3,72.15,-1.40588,1.16518,11.1768
31240375,0.20027,-0.0905475,0.0415453,27,1.8,71.55,-1.02507,1.42144,9.52903
31263210,0.0276969,-0.123571,0.0127832,27.3,2.1,72.6,-0.855022,0.925675,9.99127
31276372,0.111853,-0.0735032,0.0479369,28.65,0.9,71.7,-1.66214,1.28014,10.1134
31299203,0.104396,-0.0287621,0.0106526,28.2,1.2,72.45,-1.0562,1.76633,10.3721
31311372,0.208792,-0.0340885,-0.02024,29.1,2.1,71.85,-1.14961,1.29451,9.89786
31334203,0.04048,0.115049,0.0607201,27.3,3.6,71.55,-1.54718,1.26816,10.1781
31347372,0.185356,0.0980043,-0.00319579,28.5,1.8,73.65,-0.843047,1.60107,10.1086
31370216,0.00319579,0.169377,-0.00319579,26.85,2.7,72.45,-1.71723,1.19152,9.58172
31383378,0.0830906,0.160855,-0.0127832,28.8,1.8,72.6,-1.32445,1.9244,10.5757
31396375,0.0798948,0.129962,0.015979,28.2,2.7,71.4,-1.67172,1.44539,9.78769
31419203,-0.0117179,0.102265,-0.0234358,27.3,3.6,72.6,-2.27527,1.51964,9.96971
31432374,0.056459,0.127832,-0.0340885,28.5,3.3,72.15,-1.3005,1.50287,10.1877
31455203,0.0553937,0.151268,-0.0479369,27.9,3,72.45,-1.65017,1.42623,9.64399
31467375,0.0607201,0.126766,-0.0585895,28.65,4.5,71.7,-1.09452,1.78788,9.84757
31490216,0.0372843,0.135289,-0.0692422,29.25,3,72.75,-1.19511,1.29211,9.52903
31502378,0.0351537,0.103331,-0.0149137,29.55,4.05,72.9,-1.50407,1.81183,10.2284
31525203,0.0234358,0.00745685,-0.00213053,29.85,2.85,73.65,-1.92081,1.60826,9.76374
31537378,0.0479369,0.0798948,0.0298274,29.1,1.8,70.5,-0.950823,1.45737,9.96971
31560209,0.0117179,0.116114,0.0298274,29.55,2.85,71.1,-1.96392,1.02148,9.85236
31573379,0.00426106,0.191748,0.0330232,29.7,3,71.4,-1.55437,1.04303,9.98887
31596203,0.0660464,0.185356,-0.00319579,29.85,1.8,71.1,-1.71962,0.896935,10.0823
31608383,0.0703075,0.168312,0.0106526,30.6,2.55,72.6,-2.12917,0.88975,9.64639
31631203,0.0319579,0.0852212,-0.0735032,28.05,2.55,71.85,-1.45138,2.17827,10.0272
31643377,0.00532632,0.115049,-0.00958738,30,2.4,70.95,-1.41546,1.96511,9.77093
31666216,0.00639159,0.1012,0.0170442,30.6,4.35,70.8,-0.893342,1.34959,9.76853
31679379,0.0468716,0.00532632,-0.0308927,30,2.7,72.45,-1.6813,2.51118,9.93379
31702203,0.0223706,0.0394148,0.00532632,30.9,4.05,71.85,-1.61424,1.83339,10.0727
31714377,-0.0181095,-0.0266316,-0.0298274,30,2.4,71.7,-1.56634,2.01062,9.77332
31737209,-0.0532632,0,-0.00106526,28.95,4.5,70.95,-1.47773,1.46695,9.95774
31749382,-0.00852211,0.02024,-0.00319579,30,3.45,72,-1.79387,1.42623,9.77093
31772203,-0.0127832,0.00639159,-0.0223706,30.6,2.55,70.8,-1.38911,1.47413,9.74937
31784382,0.0138484,0.0245011,-0.015979,30.6,3.6,71.55,-1.51126,1.46216,9.92421
31807203,0.00852211,0.0276969,-0.0127832,30,4.2,72.45,-1.6358,1.54838,9.82122
31819378,-0.00639159,0.02024,-0.00426106,29.85,4.35,72.6,-1.73639,1.52922,9.87631
31832675,0.00106526,0.00958738,-0.0117179,29.85,2.85,72.15,-1.65496,1.61305,9.76135
31855209,-0.0255663,0.0213053,-0.00319579,28.8,2.85,72.9,-1.57113,1.45976,9.79248
31867379,-0.00745685,0.00852211,-0.00106526,30.75,2.4,71.7,-1.57592,1.58191,9.99366
31890203,-0.00213053,-0.00213053,0.00106526,31.05,4.2,70.35,-1.48491,1.443,9.79488
31902480,-0.0138484,0.02024,0.00426106,29.85,4.05,72.15,-1.59987,1.52922,9.76374
31925203,0.0106526,0.0106526,-0.00106526,30.45,4.2,72.45,-1.66693,1.58431,9.87391
31937376,-0.00319579,0.00639159,0.00639159,29.7,3.75,69.9,-1.55676,1.45497,9.80446
31960210,0.00213053,0.00639159,0.0106526,29.25,3,71.7,-1.74118,1.5388,9.82841
31973379,0.00106526,0.00745685,0.0170442,29.55,3.3,71.85,-1.76752,1.51724,9.79009
31996203,0,-0.00426106,0.00213053,30.75,4.2,70.95,-1.66933,1.46216,9.82601
32008377,-0.0138484,-0.0170442,0.0138484,29.1,3.3,71.55,-1.70765,1.62742,9.96971
32031216,-0.0213053,-0.0276969,0.0170442,29.85,2.1,71.55,-1.69567,1.60107,9.80446
32043379,-0.0340885,-0.0298274,0.00958738,28.05,3.6,71.85,-1.41306,1.45976,9.74937
32066203,-0.0138484,0.0138484,0.00745685,31.05,3.75,72.75,-1.5879,1.3927,9.95295
32078377,-0.00958738,0.0234358,0.0106526,30.45,3.45,71.7,-1.70765,1.40947,9.85475
32101210,0.00745685,-0.00426106,-0.00213053,29.7,4.5,71.4,-1.64777,1.55078,9.8308
32113379,-0.00319579,0.02024,0.015979,29.55,4.35,71.1,-1.5879,1.42384,9.735
32136203,-0.00852211,0.00319579,0.00319579,31.35,4.35,71.85,-1.63101,1.61305,9.87391
32148382,-0.00958738,-0.00319579,0.0127832,30.6,4.05,72.6,-1.53521,1.61544,9.8811
32171203,-0.0170442,0.00532632,0.00213053,29.85,3.6,71.85,-1.59987,1.31367,9.79009
32183378,-0.0117179,0.0213053,0.00426106,28.05,4.35,71.85,-1.4897,1.33283,9.7853
32206216,0.0127832,0.0276969,0.00852211,30.9,3.3,71.55,-1.7771,1.44539,9.84517
32219378,0.015979,0.00106526,0.015979,30.75,3,70.95,-1.78429,1.48611,9.83799
32242203,-0.0117179,-0.04048,0.0181095,29.55,4.05,72.9,-1.51365,1.52683,9.90505
32254378,-0.0117179,-0.0553937,0.0308927,28.8,5.1,71.85,-1.45857,1.60826,9.91702
32277202,0.00852211,-0.0458064,0.00532632,29.1,2.85,72.15,-1.55197,1.45258,9.74698
32289377,-0.0255663,0.0106526,0.0351537,29.25,3.45,72.45,-1.56874,1.49329,9.8308
32312203,0.0138484,-0.0585895,0.0117179,30,3.75,71.7,-1.56874,1.66095,9.91942
32324376,-0.0703075,-0.0287621,0.0436758,31.05,2.7,71.4,-1.79387,1.45018,9.79248
32347203,-0.0351537,-0.0351537,0.0308927,29.85,3.6,72.15,-1.86093,1.06459,9.78769
32359377,-0.00319579,-0.0426106,0.0255663,30.75,3.75,73.05,-1.59029,1.16278,9.7853
32382341,-0.0276969,-0.0287621,0.02024,29.7,4.95,72.75,-1.70286,1.23703,9.82122
32395374,0.0234358,-0.0553937,0.00106526,29.7,3.75,71.7,-1.51605,1.53162,9.96253
32408369,-0.00213053,-0.0426106,0.0479369,28.2,4.2,71.7,-1.83459,1.56275,9.74458
32431204,-0.0191748,-0.0596548,0.00958738,29.25,3,70.95,-1.12566,1.65616,9.79727
32443399,-0.0351537,-0.056459,0.00852211,29.1,3.6,72.6,-1.51605,1.41426,9.79727
32466202,-0.00426106,-0.02024,0.0553937,30,3.45,71.4,-1.57113,1.26337,9.93618
32478362,0.0170442,-0.052198,0.0191748,28.5,2.85,71.85,-1.59748,1.40468,9.74219
32501286,0.0319579,-0.056459,0.0468716,28.05,3.6,70.05,-1.16398,1.71603,10.0727
32514378,0.0383495,-0.04048,0.0500674,28.65,2.7,71.7,-1.78668,1.27535,9.82122
32537203,0.02024,-0.0436758,0.0415453,29.1,2.1,72.9,-1.38193,1.64658,9.76853
32549379,0.0479369,-0.0628506,0.0266316,30.6,3.6,70.8,-1.59269,1.7328,9.94816
32573227,0.0617853,-0.052198,0.0426106,28.8,3.3,73.2,-1.43222,1.57952,9.83559
32586378,0.0585895,-0.0681769,0.0479369,30.15,4.35,72.9,-1.33163,1.39989,9.81643
32609203,0.113983,-0.0735032,0.0383495,28.8,4.35,72.15,-1.38432,1.4885,9.82841
32621385,0.113983,-0.0447411,0.0628506,28.8,3.3,70.8,-1.2981,1.35917,9.85715
32644203,0.18003,-0.0383495,0.0660464,28.5,3.6,73.95,-1.46575,1.2514,9.75656
32656376,0.233293,-0.0319579,0.0340885,29.25,4.95,73.8,-1.11847,1.77351,9.86194
32679203,0.319579,0.0330232,0.036219,28.05,4.35,72.6,-0.917293,1.50527,9.84757
32692377,0.428236,0.107592,0.0511327,29.1,5.1,73.2,-1.27415,1.31846,9.65596
32705378,0.535828,0.137419,0.0468716,27.75,6.15,71.85,-1.03465,1.28253,9.61764
32728203,0.673247,0.224771,0.0809601,28.2,6,72,-1.152,1.36157,9.62483
32740379,0.875647,0.292948,0.0916127,30,6,72,-1.16637,1.68969,9.56974
32763204,1.04502,0.355798,0.0980043,28.2,7.5,72,-1.20709,2.03936,9.71105
32775376,1.22612,0.431432,0.133158,28.8,8.1,71.85,-1.70286,1.69208,9.64159
32798203,1.44769,0.476173,0.120375,29.1,9.9,71.85,-1.33163,2.42496,9.7829
32810381,1.55955,0.534763,0.129962,31.35,11.85,72.6,-1.56874,2.46328,9.58411
32833203,1.84717,0.585895,0.183225,30.9,13.2,71.85,-1.49449,3.06682,10.0703
32846376,1.98459,0.567786,0.231162,30.6,13.65,70.8,-1.85375,3.16981,10.2691
32869216,2.03998,0.458064,0.257794,31.35,16.95,69.45,-2.39741,3.83323,10.6451
32882379,2.20403,0.398409,0.367516,32.55,19.8,68.85,-2.49561,4.22362,10.6092
32905203,2.17847,0.208792,0.417584,32.1,20.85,69.6,-3.38895,4.19248,9.6847
32917378,2.24451,0.0266316,0.568851,32.1,21.15,68.85,-2.42855,4.43438,10.1565
32940209,2.24132,0.198139,0.667921,33.3,24.9,67.5,-2.53154,6.02707,12.3288
32953382,1.58618,0.237554,0.657268,31.95,27,67.65,-2.13636,5.69176,10.59
32976203,1.63198,0.32384,0.688161,31.95,28.5,65.55,-1.71962,6.88927,9.08595
32988384,1.26447,0.486826,0.606135,32.1,29.7,65.7,-2.7399,5.21755,8.68119
33011203,1.00241,0.387756,0.475108,32.55,30.45,65.1,-4.7134,2.595,10.6715
33023379,0.956607,0.178964,0.128897,31.8,31.2,64.65,-3.46559,3.73743,10.6547
33036675,-0.209857,0.0340885,-0.0532632,32.4,32.55,63.45,-1.24541,1.68011,5.41918
33059209,0.0639159,0.103331,0.00532632,32.85,32.4,64.65,-1.89686,1.40468,11.8546
33071382,0.0511327,0.249272,0.185356,30.9,31.35,64.95,-0.58199,1.86692,8.3387
33094203,-0.722249,0.0500674,0.124636,31.5,31.65,63.6,-1.23104,1.37115,7.32561
33106384,-0.70627,0.015979,0.171508,32.55,30.45,63.6,-1.89925,1.443,10.4703
33129203,-0.86606,-0.0149137,0.0894822,33.45,30.3,64.95,-2.36388,1.5388,8.36505
33141379,-1.32093,-0.109722,-0.143811,31.95,28.5,66.3,-2.5507,1.54599,7.83096
33164240,-1.31986,-0.0798948,-0.307861,32.55,26.4,66.45,-2.88839,1.92919,9.64639
33177379,-1.3923,-0.0351537,-0.448476,31.8,25.35,67.2,-2.49561,2.29323,8.89674
33200203,-1.70655,-0.0617853,-0.608266,31.8,23.4,66.45,-2.48124,2.84169,9.23205
33212379,-1.79604,-0.0958738,-0.656203,31.8,19.35,69.6,-2.57944,3.55062,10.5924
33236213,-1.80882,-0.104396,-0.631702,32.4,18,69.75,-2.17468,3.95058,9.95534
33248382,-1.95796,-0.123571,-0.633832,33.75,15.9,69,-2.46448,4.21883,9.75895
33271203,-1.94837,-0.12144,-0.618919,31.65,13.95,70.05,-2.60099,4.30984,10.3242
33283428,-1.877,-0.0692422,-0.612527,30.15,8.1,69.75,-2.41178,3.92184,9.45957
33306203,-1.87913,-0.0415453,-0.628506,32.4,6.15,71.1,-2.32077,4.07513,10.226
33318378,-1.86741,-0.0127832,-0.612527,31.5,3.45,69.3,-2.59381,4.03441,10.6116
33341203,-1.83971,-0.0149137,-0.578439,31.65,0,69.45,-2.4549,4.14698,10.1302
33354382,-1.78645,-0.00319579,-0.512392,30.75,-3.75,69.9,-2.24413,4.50383,10.6403
33377203,-1.65755,0.0298274,-0.411192,29.7,-5.7,67.5,-2.18426,4.30265,10.1757
33389378,-1.57979,0.0127832,-0.333428,29.25,-7.2,66.45,-2.16989,3.97453,9.3518
33412216,-1.42426,-0.00532632,-0.267381,28.8,-6.9,66.3,-1.9232,3.73743,9.27037
33424382,-1.15368,0.0298274,-0.172573,28.05,-9.9,63.45,-2.09804,3.45242,9.33982
33447203,-1.14836,0.0191748,-0.166181,27.75,-12.45,64.2,-2.46927,3.8452,9.99127
33459379,-1.04183,-0.0117179,-0.18003,27.75,-12.45,62.4,-2.96503,3.7973,9.74219
33482210,-0.869256,-0.0660464,-0.210922,27.9,-13.5,62.25,-2.94827,3.61049,8.75304
33494382,-0.722249,-0.0809601,-0.252468,28.2,-15.6,60.45,-2.82373,3.21292,8.60695
33517203,-0.513457,-0.0692422,-0.333428,27,-16.65,60.3,-2.87402,3.01174,8.40337
33529378,-0.332363,-0.148072,-0.436758,26.25,-16.65,59.7,-3.33147,3.55541,9.43562
33552203,-0.448476,-0.297209,-0.548611,25.65,-16.65,58.2,-2.7902,3.97214,10.8678
33564379,-0.559264,-0.350472,-0.543285,26.25,-17.7,58.95,-1.6334,3.74461,11.0451
33577673,-0.647681,-0.22264,-0.40267,24.9,-16.95,57.15,-0.59157,3.35662,9.27276
33600209,-0.496413,-0.187487,-0.249272,24.15,-18,58.2,-0.63947,2.53992,7.85252
33612382,-0.266316,-0.254598,-0.0990696,23.55,-20.1,56.7,-0.838257,2.34353,7.78545
33635203,-0.113983,-0.36219,-0.0191748,22.8,-21,55.8,-1.72441,2.5974,8.91351
33647384,-0.0862864,-0.427171,-0.0191748,22.35,-20.7,54.45,-2.22497,2.80577,10.1158
33670203,-0.196009,-0.313188,-0.0117179,21.6,-19.5,55.5,-2.10283,3.15065,11.0547
33682379,-0.488956,-0.0937433,-0.0383495,22.8,-19.95,56.1,-2.04774,2.91833,10.7265
33705216,-0.543285,0.0575243,-0.04048,21.9,-19.8,54.9,-1.97829,2.21899,8.92788
33718379,-0.451672,0.0937433,-0.0266316,21.6,-21.75,53.7,-1.69807,1.75196,7.61541
33741203,-0.255663,0.116114,-0.00426106,21.9,-21.6,54.3,-2.09804,2.12318,8.20219
33753379,-0.152333,0.0308927,-0.0330232,21.3,-22.2,53.4,-2.32556,2.20941,7.97466
33776209,0.0191748,0.0223706,-0.0138484,22.5,-22.65,53.55,-2.13636,2.38903,8.42253
33788382,0.184291,-0.0383495,-0.115049,21.6,-22.5,54,-1.7316,0.786764,6.16642
33811203,0.412257,-0.0553937,-0.156594,21.3,-22.2,53.7,-2.28724,0.0371228,14.4771
33823424,0.113983,0.0458064,-0.176834,21.15,-22.35,54.3,-1.24062,-0.655038,9.33024
33846203,0.00639159,-0.00106526,-0.154463,21.3,-22.2,53.7,0.0742456,-0.96639,8.50875
33858378,0.500674,-0.00319579,0.0639159,21.9,-22.35,53.55,0.165256,-0.887355,8.80813
33881203,0.537959,-0.0436758,0.249272,21.6,-23.25,54.45,-0.361648,-0.453856,10.0535
33894382,0.540089,0.00426106,0.292948,20.4,-21.6,53.85,-2.3064,0.29818,10.3218
33917203,0.658333,-0.052198,0.227967,22.05,-21.45,54.75,-3.15903,0.405956,9.12667
33929378,0.725445,-0.158724,0.190682,21.9,-21.15,54.9,-3.41769,0.88017,11.2367
33952216,0.62318,-0.256729,0.157659,20.55,-19.95,55.8,-2.19144,1.443,11.1241
33965382,0.372843,-0.30147,0.118244,21.15,-21.15,54.9,-2.31598,1.2035,10.7002
33988203,0.437824,-0.290817,0.116114,21.6,-20.7,56.1,-2.06451,1.1077,10.5948
34000379,0.332363,-0.315318,0.0958738,20.1,-19.35,55.95,-2.02619,0.693358,9.7853
34023210,0.380299,-0.337689,0.0713727,20.55,-20.25,55.5,-1.85375,0.544867,9.71584
34035376,0.496413,-0.356864,0.0948085,19.5,-21.45,55.8,-1.61424,0.877775,9.76853
34058203,0.428236,-0.363255,0.0575243,19.5,-19.5,56.1,-1.19751,1.23463,10.2763
34070381,0.325971,-0.264186,0.0415453,19.5,-18.45,56.1,-0.64426,1.30169,11.6223
34083680,0.34408,-0.157659,0.056459,19.95,-18.45,56.85,-0.61073,1.85015,10.4439
34106203,0.0372843,-0.0990696,-0.0117179,20.4,-18.6,57.3,-1.48252,1.76872,11.105
34118378,0.0948085,-0.0319579,0.0127832,20.25,-18.75,56.85,-1.27655,0.975971,9.85236
34141210,0.0500674,-0.00639159,0.0191748,19.5,-19.2,57.15,-1.36037,0.700543,9.80206
34163203,0.230097,-0.0830906,0.0308927,19.35,-18.3,58.05,-1.47773,0.762814,9.24642
34175376,0.131028,-0.106526,0.076699,19.65,-19.05,57.3,-1.84177,0.793949,9.86194
34188384,0.256729,-0.107592,0.0671117,19.05,-17.85,58.05,-0.905317,1.39749,10.8942
34211203,0.0532632,-0.0894822,0.0426106,19.95,-19.2,55.8,-0.989143,1.62981,9.929
34223379,0.0223706,-0.0511327,0.0149137,19.5,-18.75,56.85,-1.24541,1.28732,10.202
34246216,0.092678,-0.00213053,0.0426106,19.2,-19.2,57.6,-1.2981,1.12446,10.0296
34259379,0.11931,-0.00532632,0.0394148,20.1,-17.85,55.95,-0.943638,1.07177,9.82841
34282203,0.102265,0.00639159,0.0426106,19.95,-17.4,57.15,-1.24062,1.13165,9.91702
34294379,0.129962,0.0127832,0.0575243,19.95,-18,56.55,-1.38432,1.38552,10.1062
34317209,0.106526,0.0255663,0.0436758,20.1,-17.55,58.35,-0.996328,1.5867,10.1805
34329382,0.0735032,0.0415453,0.0255663,19.65,-17.55,58.35,-1.23344,1.3951,10.0056
34352203,0.0436758,0.0500674,-0.0117179,18.75,-17.7,57.6,-0.926873,1.82381,10.1733
34364405,0.0340885,0.0660464,-0.015979,19.5,-18,57.15,-1.46336,1.32325,9.91702
34387203,-0.00426106,0.0692422,0.00213053,20.4,-17.1,58.05,-1.1544,1.19392,9.90505
34399378,0.1012,0.118244,0.015979,20.1,-18.3,57.3,-1.1544,1.10051,9.75656
34422228,0.00319579,0.143811,0.0170442,20.4,-17.85,57,-0.64426,1.46695,9.62962
34435382,0.0511327,0.0980043,-0.015979,20.1,-17.1,57,-1.47054,1.47892,10.2284
34458203,0.0330232,0.100135,0.02024,19.5,-16.95,58.2,-1.50407,1.3448,9.87391
34470378,0.00213053,0.0809601,-0.00958738,20.1,-18.3,57,-1.75315,1.22745,9.82841
34493216,0.0990696,0.0798948,0.00532632,19.5,-18,57.9,-2.04774,1.1053,10.0416
34505382,0.0862864,0.0543285,0.00639159,20.7,-17.85,57.3,-1.13284,1.51245,9.77332
34528203,0.0372843,0.0543285,0.0308927,19.05,-18.3,56.7,-1.47773,1.27295,9.77332
34540378,0.0873517,0.0330232,-0.0170442,20.25,-16.95,57.6,-1.346,1.48611,10.0464
34563210,0.0106526,0.0596548,0.0181095,21.6,-18.75,56.55,-1.37714,1.49329,9.86912
34576376,0.00958738,-0.0234358,-0.0149137,20.7,-17.85,58.35,-1.14721,1.8765,9.93618
34599203,0.00319579,0.00639159,0.0245011,20.4,-17.55,57.3,-1.31966,1.32325,9.85954
34612381,0.0138484,0.0191748,0.0266316,19.65,-17.55,57.3,-1.55197,1.26337,9.80925
34625382,0.0596548,-0.0298274,-0.0298274,20.7,-16.35,57.3,-1.13045,2.24533,9.94576
34648203,-0.0170442,0.04048,0.00639159,21.3,-16.65,57.6,-1.18314,1.75196,9.90744
34660379,0.0330232,0.0479369,0.0298274,19.65,-17.85,56.7,-0.831072,1.44539,10.0943
34683210,0.0245011,0.072438,0.0191748,19.95,-16.95,58.2,-1.58311,1.32325,9.71105
34696376,-0.0298274,0.0426106,0.0287621,22.2,-17.55,58.35,-1.35319,1.5388,10.0464
34719203,-0.0117179,0.0245011,0.0234358,20.1,-17.1,58.05,-1.54479,1.31846,9.78051
34731381,-0.015979,0.0255663,0.0191748,21.15,-17.85,57.75,-1.42504,1.43821,9.86194
34754203,0.0181095,0.0266316,0.0245011,20.25,-18.75,57.6,-1.32924,1.5867,10.0823
34766376,0.00426106,0.00852211,0.00745685,19.2,-17.4,58.95,-1.49449,1.49329,9.77811
34789216,-0.015979,0.0330232,0.015979,19.2,-17.4,58.65,-1.22625,1.60107,9.94337
34801379,0.0607201,0.0138484,-0.0213053,20.7,-17.1,57,-1.2502,1.50287,9.90026
34824203,-0.0138484,0.0553937,0.0181095,19.95,-17.4,57.15,-1.69088,1.35678,9.68231
34836378,0.0447411,0.052198,0.0298274,20.25,-16.65,58.2,-1.57592,1.65137,9.9266
34859209,0.0245011,0.00958738,-0.0213053,21.15,-16.35,56.7,-1.24541,1.47653,9.81643
34871382,-0.0372843,0.0479369,0.0106526,19.95,-16.95,56.55,-1.67651,0.851429,9.93858
34894203,0.0223706,0.0308927,0.0106526,20.4,-17.1,58.35,-1.21188,1.72082,9.92421
34906384,0.0223706,0.0340885,0.0191748,20.4,-16.8,58.35,-1.48012,1.63221,9.79967
34929203,-0.0181095,0.0319579,0.0298274,20.7,-17.55,57.75,-1.78908,1.17715,9.82122
34941379,0.00426106,0.0383495,-0.00745685,19.5,-17.7,57.15,-1.09213,1.77112,10.0464
34964243,-0.00639159,0.0479369,0.02024,20.7,-17.1,57.3,-1.64298,1.75435,9.96013
34977379,-0.00852211,0.02024,0,21.45,-16.8,57.3,-1.38193,1.47174,9.77093
35000203,-0.02024,-0.00213053,0.00319579,20.7,-16.8,57,-1.29571,1.50766,9.929
35012379,0.00639159,0.0127832,0.0181095,20.1,-17.85,58.05,-1.46575,1.57952,9.93858
35035220,0,0.00852211,0.00639159,21,-17.4,58.2,-1.23823,1.54599,9.79967
35048382,-0.00958738,0.0266316,0.00319579,19.65,-16.8,57.3,-1.48012,1.53162,9.86912
35061378,0.0149137,0.0234358,0.00426106,21,-16.95,58.65,-1.51126,1.52443,9.90026
35084244,0.00213053,0.0138484,0.00745685,22.2,-16.8,57.75,-1.51605,1.51006,9.76135
35097382,-0.0127832,0.00426106,0.00852211,20.55,-17.7,57.6,-1.3939,1.49808,9.89307
35120203,0.00745685,-0.0127832,0.0191748,20.7,-17.55,57.3,-1.43701,1.65616,9.87152
35132378,-0.00106526,-0.015979,0.0191748,21.15,-18.3,57.3,-1.47533,1.49329,9.8787
35155213,-0.00852211,-0.0213053,0.02024,19.65,-16.8,58.05,-1.41067,1.49329,9.84278
35168382,0.00852211,-0.0234358,0.015979,21.3,-16.95,57.9,-1.47773,1.51245,9.89547
35191203,0.0106526,-0.0308927,0.0191748,19.95,-16.2,57.6,-1.38432,1.56994,9.83559
35203409,0.00852211,-0.00745685,0.0213053,21.15,-16.05,58.35,-1.41067,1.54359,9.88589
35226203,0.0127832,-0.0106526,0.0117179,20.1,-17.55,58.05,-1.40348,1.52683,9.88349
35238379,0.00106526,-0.00319579,0.00532632,20.4,-15.6,57.75,-1.35079,1.62502,9.85954
35261204,-0.00852211,0.0149137,0.00852211,20.25,-16.95,57.6,-1.43462,1.59389,9.93379
35274382,0.00213053,-0.00958738,0.00319579,21,-17.4,57.15,-1.40588,1.58191,9.91702
35297203,-0.0191748,-0.00639159,0.0138484,21,-15.45,57.9,-1.50647,1.60586,9.82362
35309379,-0.00319579,-0.0170442,0.00852211,21.15,-16.35,58.05,-1.36277,1.68729,9.91702
35322722,0,0.00426106,0.00958738,20.7,-17.55,58.35,-1.37474,1.41905,9.89307
35345203,0.00106526,0.00213053,0.00852211,21,-16.95,57.15,-1.34121,1.5412,9.80446
35357372,0,0.00958738,0.00532632,20.1,-17.85,57.3,-1.46815,1.56994,9.93379
35380207,0.0138484,0.04048,0.00106526,20.1,-17.55,58.05,-1.51126,1.5388,9.96253
35393376,0.00958738,0.0117179,0.0106526,20.55,-17.4,56.85,-1.67891,1.51006,9.76853
35416203,-0.00426106,-0.0308927,0.0106526,21.15,-17.1,57.75,-1.51365,1.64658,9.85475
35428376,-0.0127832,-0.00106526,0.00639159,20.4,-17.85,57,-1.2526,1.54838,9.93618
35451216,-0.00852211,0.0330232,0.00639159,20.25,-17.7,56.85,-1.3484,1.4406,9.87391
35464382,0.0149137,0.0607201,0.00319579,21,-15.9,58.65,-1.43941,1.62263,9.82122
35487203,0.0298274,0.0777643,0.00106526,20.1,-16.05,57,-1.20948,1.66813,9.82841
35499380,0.0458064,0.0756338,-0.00106526,21.15,-17.55,57.75,-1.61903,1.53162,9.84757
35522210,0.0415453,0.0703075,-0.00958738,20.55,-17.7,57.15,-1.2526,1.4885,9.74698
35534382,0.0383495,0.0372843,0.00213053,20.7,-15.3,59.1,-1.46336,1.56275,9.94576
35557203,0.072438,0.00639159,0.0127832,19.35,-16.05,58.05,-1.52084,1.53162,9.97211
35569384,0.0500674,0.00532632,0.0255663,20.25,-16.95,57.9,-1.42743,1.62023,9.65117
35592203,0.0553937,-0.0234358,0.00319579,20.4,-16.35,57.3,-1.4921,1.59149,9.87391
35604379,0.0639159,-0.00319579,0.02024,21.15,-17.1,58.05,-1.48252,1.55317,9.81883
35627216,0.0894822,-0.0127832,0.00106526,20.4,-15.6,58.05,-1.4442,1.37115,9.71345
35640379,0.0980043,0.0149137,0.0138484,19.35,-16.05,58.05,-1.20469,1.55078,9.97929
35663203,0.149137,0.0234358,0.0213053,19.5,-16.65,57.15,-1.43222,1.45737,9.79248
35675379,0.136354,-0.00852211,0.0287621,20.25,-15.9,58.95,-1.40827,1.64658,9.72782
35698209,0.187487,0.00319579,0.0436758,19.65,-16.8,58.05,-1.54958,1.46455,9.8308
35711382,0.269512,0.0223706,0.0447411,20.4,-15.6,59.85,-1.46096,1.62981,9.80685
35724378,0.298274,0.0500674,0.0351537,20.7,-16.35,58.8,-1.24781,1.74956,9.77332
35747216,0.337689,0.122505,0.0383495,20.7,-14.85,58.05,-1.62622,1.65855,9.69189
35760382,0.4048,0.175769,0.00639159,20.4,-15.3,58.05,-1.51844,1.62023,9.77811
35783203,0.42291,0.201335,-0.0298274,19.65,-14.55,58.05,-1.3939,1.92679,9.67992
35795378,0.467651,0.254598,-0.02024,21.15,-16.35,59.4,-1.46336,1.95553,9.7326
35818209,0.504935,0.22264,-0.0138484,21.3,-15.15,60.75,-1.48731,2.08965,9.71824
35830382,0.52198,0.215183,-0.00745685,21.6,-13.95,57.6,-1.3939,2.21899,9.77811
35853203,0.551807,0.189617,0.0181095,20.55,-13.2,58.65,-1.52802,2.21899,9.48113
35865384,0.565655,0.18003,0.0415453,22.8,-12.9,58.95,-1.51126,2.20462,9.59369
35888203,0.62531,0.234358,0.108657,22.2,-12.3,60.45,-1.79147,2.17348,9.48831
35900379,0.739293,0.245011,0.0873517,20.7,-12.75,57.75,-1.42264,2.48723,9.62483
35923238,0.851146,0.288687,0.126766,21.6,-12.9,59.7,-1.4921,2.14953,9.53382
35936379,0.992826,0.306796,0.198139,21.15,-9,60.45,-1.74597,1.87171,9.37814
35959203,1.29962,0.38243,0.319579,21.45,-9.75,59.85,-1.74118,2.81295,10.0248
35971379,1.40721,0.486826,0.367516,22.5,-9.3,58.35,-1.95194,2.63572,10.1493
35994216,1.55316,0.528371,0.363255,21,-9.15,60.75,-1.88967,3.58894,10.42
36007382,1.59683,0.639159,0.491087,23.25,-6.75,60.9,-2.28485,3.57936,10.8271
36020378,1.67353,0.557133,0.527306,24,-5.7,60.15,-2.43573,4.36013,10.2571
36043238,1.84291,0.446346,0.639159,24.75,-4.2,61.5,-3.10155,3.98891,11.7324
36056382,1.56807,0.298274,0.608266,25.05,-4.2,59.4,-2.61057,4.5206,10.0607
36079203,1.7204,0.306796,0.628506,24.75,-1.2,61.2,-2.43334,4.26194,10.7481
36091378,1.49563,0.0745685,0.447411,25.65,0.3,60.3,-4.50982,1.66813,12.712
36114216,1.06526,-0.24288,0.169377,25.35,0.9,58.8,-1.84896,0.667013,9.28234
36127382,0.779773,-0.155529,0.217314,24.75,2.4,60.45,-1.25499,0.377216,12.918
36150203,0.117179,-0.257794,0.251402,24.15,2.55,59.25,0,-0.168849,9.73021
36162421,-0.143811,-0.318514,0.44528,23.85,1.8,58.2,-0.469424,-0.458646,10.9253
36185210,-0.44528,-0.421845,0.525175,23.25,2.4,58.35,-1.06339,-0.465831,9.88828
36197374,-0.943824,-0.504935,0.468716,23.1,2.1,57.9,-1.73639,-0.106578,10.5828
36220206,-1.21547,-0.454868,0.370712,22.95,0.45,57,-2.3543,-0.113763,9.89547
36232378,-1.52439,-0.385626,0.199204,22.95,-0.45,56.7,-2.79738,0.159269,9.3015
36255203,-1.71188,-0.329167,0.00106526,20.55,-0.6,56.1,-3.20933,0.772394,9.929
36267378,-1.89297,-0.234358,-0.194943,22.35,-1.8,56.85,-3.37458,1.28014,10.4008
36290216,-2.13266,-0.178964,-0.405866,20.25,-4.05,54.75,-3.05365,2.05612,10.305
36303379,-2.19764,-0.056459,-0.490022,20.1,-4.2,54.3,-3.34824,2.87522,11.6678
36326203,-2.31269,-0.0276969,-0.616788,19.5,-7.65,51.6,-3.42248,3.75898,10.9684
36338378,-2.39045,-0.00532632,-0.711597,19.95,-6.9,53.7,-2.95066,4.63317,10.2451
36361209,-2.22427,0.0990696,-0.694552,18.45,-11.85,51.6,-2.11959,4.82477,9.86194
36373382,-2.05276,0.183225,-0.593352,17.55,-11.25,50.7,-1.42983,4.63077,9.61046
36396203,-1.99631,0.218379,-0.452737,17.55,-14.55,48.3,-1.11608,4.15656,9.80685
36408384,-1.82586,0.229032,-0.314253,17.85,-13.8,46.95,-0.962798,4.1853,10.1445
36431203,-1.6959,0.265251,-0.227967,17.25,-16.8,45.9,-1.4897,4.73855,10.6092
36443379,-1.65968,0.190682,-0.243946,16.2,-17.1,44.4,-1.69567,5.33491,10.9732
36466216,-1.63092,-0.00319579,-0.28336,16.2,-18.6,43.05,-1.42504,4.92057,9.7853
36478379,-1.31667,-0.193878,-0.223706,16.65,-18,42.15,-1.42264,4.27391,9.37335
36501203,-1.08977,-0.236489,-0.11931,15.6,-18.45,40.8,-1.49449,4.02004,10.2763
36513379,-1.20908,-0.123571,-0.0745685,18.45,-19.5,38.7,-1.46336,4.41761,13.0904
36526384,-1.3923,0.150202,-0.0383495,15.9,-19.95,37.35,-1.82021,3.86915,10.602
36549203,-1.31134,0.24075,-0.117179,14.85,-19.95,37.35,-2.34951,3.41889,8.34828
36571203,-0.988565,0.236489,-0.150202,15.6,-19.2,33.75,-1.96152,3.04766,8.03454
36583418,-0.717988,0.225836,-0.169377,15.9,-18.75,34.5,-1.64059,2.7914,7.5723
36596382,-0.432497,0.232228,-0.15979,16.35,-19.5,34.2,-1.825,2.82732,7.96987
36619203,-0.26312,0.171508,-0.166181,14.85,-19.5,34.2,-2.01421,3.40452,9.72063
36631378,-0.471912,0.148072,-0.255663,16.35,-18,33.15,-2.22497,3.57217,10.7888
36654216,-0.490022,0.0969391,-0.339819,15.75,-18.3,31.2,-2.12438,2.47525,7.89563
36666382,-0.227967,0.0681769,-0.372843,15.9,-19.2,32.4,-1.59987,2.20222,7.00947
36689203,-0.015979,0.104396,-0.368581,15.3,-19.5,31.65,-1.65496,2.4058,7.86928
36701392,0.133158,0.12144,-0.349407,15.6,-19.5,30.3,-1.62143,2.63093,8.30517
36724204,0.258859,0.0234358,-0.396278,16.2,-19.05,31.95,-1.32924,3.48595,5.42396
36736376,1.04502,0.072438,-0.233293,15.75,-18.6,29.85,-0.529299,1.27295,9.09793
36759203,0.333428,-0.0511327,-0.282295,15.6,-18,30.6,-0.213157,-0.379611,15.2076
36771381,-0.11931,-0.0490022,-0.0745685,15,-18.3,31.2,0.728086,-1.33762,9.35659
36794203,0.397344,-0.127832,0.171508,15.6,-18.45,31.05,-0.493374,-1.67771,6.69812
36806376,0.495348,-0.0756338,0.256729,15.9,-18.75,31.35,-0.182021,-0.686173,10.7601
36829216,0.492152,0.0500674,0.285491,15.6,-18,30.6,-0.912502,-0.92328,8.35786
36841379,0.699879,0.0905475,0.311057,14.85,-18,31.35,-1.63101,-1.13644,8.1495
36864203,1.10042,0.00852211,0.389887,15.45,-18.6,31.5,-2.12678,-0.762814,9.08595
36876378,0.720119,-0.0745685,0.348341,15.9,-19.2,31.35,-3.39614,0.94723,13.2748
36899209,0.912932,0.0181095,0.312122,13.8,-18,31.05,-3.33147,1.0119,9.46197
36911382,0.773382,-0.0213053,0.072438,14.85,-16.95,32.1,-3.78413,0.746049,10.4487
36934203,0.634898,-0.0862864,0.00213053,17.25,-17.85,31.5,-1.55197,0.973575,10.1158
36946384,0.833037,-0.188552,0.166181,15.6,-17.4,32.4,-1.37953,1.37115,11.8618
36969203,0.471912,-0.255663,0.14168,16.5,-17.55,31.95,-2.76864,1.99625,11.2487
36981379,0.366451,-0.272708,0.0351537,15.45,-17.1,33,-1.93278,1.0095,9.76614
37004241,0.56459,-0.294013,0.0809601,15.45,-16.8,33,-1.29092,0.504152,9.53382
37017379,0.363255,-0.231162,0.0905475,15.75,-18.6,33,-1.69088,1.43581,10.4056
37040203,0.462325,-0.245011,0.0383495,15.9,-16.65,32.4,-1.55437,1.35199,10.2835
37052379,0.294013,-0.148072,0.0511327,17.25,-16.05,34.35,-1.3939,1.17715,10.6403
37075213,0.258859,-0.0958738,0.0287621,16.65,-15.9,32.4,-1.93039,1.35678,10.1781
37087382,0.247141,-0.110787,-0.0149137,15.3,-16.2,32.1,-0.917293,1.41665,10.6044
37110203,0.0820254,-0.0106526,0.0287621,16.35,-16.95,32.4,-1.2526,0.853824,10.123
37122419,0.251402,0.0191748,0.0298274,15.6,-15.9,33.45,-0.560435,1.50766,10.6164
37145209,0.0138484,0.0106526,0.00852211,16.5,-16.8,32.55,-1.32445,1.4406,10.0583
37158374,0.213053,-0.0436758,-0.0511327,15.3,-13.95,32.7,-0.953218,2.42496,10.5613
37181205,-0.02024,0.0511327,0.0223706,15.45,-15.3,34.35,-1.99505,1.64897,9.7374
37194382,0.0383495,0.0330232,-0.0223706,17.1,-15.9,33.75,-1.27176,1.5867,10.5325
37207373,0.072438,0.0830906,0.0191748,14.55,-15.9,33.45,-1.65735,0.916095,9.79488
37230203,-0.015979,0.116114,0.0415453,15.75,-16.05,33.3,-1.42504,1.48132,9.90026
37242380,0.0862864,0.00213053,-0.0394148,16.2,-15.6,33.9,-0.855022,1.6825,10.1422
37265203,-0.0575243,0.0415453,-0.0223706,17.1,-16.65,33.15,-1.85854,1.36636,9.57932
37277374,-0.0447411,0.0287621,-0.0532632,16.2,-16.35,33.9,-1.54239,1.12207,10.3026
37300203,0.00213053,0.0468716,0.00213053,15.45,-16.05,33.3,-1.65256,1.29451,9.92421
37313379,0.0255663,0.0191748,-0.0372843,15.45,-15.3,33.3,-0.977168,1.51485,9.74937
37336203,-0.0308927,0.0287621,-0.0223706,14.25,-16.65,33.15,-1.69567,1.31367,9.94816
37348379,0,-0.00639159,-0.052198,14.7,-15.3,32.25,-1.36037,1.6346,10.0416
37371216,-0.0873517,0.0149137,-0.0319579,17.4,-17.7,34.2,-1.50647,1.37115,9.85475
37383379,-0.00958738,0.0415453,0.0191748,16.2,-14.85,34.35,-1.54958,1.34959,10.1445
37406203,-0.0575243,0.122505,0.052198,15.9,-15.9,32.7,-1.9232,1.34001,9.93379
37418379,-0.0468716,0.0671117,0.0351537,14.85,-16.65,34.2,-1.41785,1.48371,9.84996
37441209,-0.0234358,0.0191748,0.00639159,15.45,-16.8,33.9,-1.42264,1.05261,9.53621
37453382,-0.0276969,0.0117179,-0.00745685,15.45,-16.8,33.3,-1.64777,0.556842,9.90265
37476203,0.00852211,0.0500674,-0.00426106,16.2,-16.8,33,-1.62622,1.26337,9.99606
37488384,0.0394148,0.00745685,-0.015979,15.6,-18,32.7,-1.95194,1.18434,9.75656
37511203,-0.0170442,0.0149137,-0.00532632,16.2,-16.35,33,-1.83698,1.12446,9.58651
37523378,0.0340885,0.0330232,0.0500674,15.6,-16.2,34.2,-2.84049,0.643063,9.93618
37546216,0.142745,-0.0383495,-0.0692422,15.6,-15.45,33.75,-1.45617,1.42863,9.69668
37559382,-0.0862864,0.02024,-0.00213053,17.25,-16.05,32.25,-0.934058,1.12207,10.2667
37582203,0.0990696,0.0575243,0.0415453,15.9,-16.95,32.4,-1.20469,0.851429,10.0416
37595378,0.036219,-0.00426106,-0.0458064,15.9,-15.9,33.15,-1.38432,1.9723,9.82841
37608384,-0.0213053,0.0340885,-0.0255663,15.9,-15.15,33.75,-1.52323,1.14123,9.86912
37631203,0.0181095,0.0415453,0.0181095,15.75,-15.6,33.3,-1.85614,1.28014,9.67992
37643379,0.0255663,-0.0181095,-0.0223706,15.75,-17.1,33,-1.67172,1.19631,10.0224
37666203,0.0255663,0.0127832,0.00319579,15.3,-15.9,34.8,-1.3939,1.28493,9.82601
37678378,0.076699,-0.00639159,-0.0287621,15.6,-15.15,31.65,-1.82021,1.16997,9.8811
37701203,-0.0106526,-0.015979,0.0106526,15.45,-16.35,33.6,-1.50168,1.50048,9.92421
37713379,0.0245011,0.00106526,0.0117179,16.35,-16.65,33.75,-1.55916,1.37354,10.0368
37737220,0.0149137,0.02024,0.00958738,15.6,-15.15,33.75,-1.4897,1.249,9.81883
37750382,-0.0372843,0.0213053,0.00106526,15.9,-15.45,34.5,-1.67172,1.1532,9.84996
37773203,0.0298274,0.0191748,0.0170442,14.7,-16.8,33.9,-1.59269,1.22984,9.94337
37785384,-0.00958738,0.00426106,0.0181095,16.2,-15.3,33.6,-1.48491,1.46216,9.6847
37808203,-0.0149137,0.0415453,0.0266316,16.5,-16.35,34.35,-1.90165,1.24182,10.0895
37820378,0.036219,0.0298274,0.0170442,15,-16.35,33.9,-1.73399,1.37594,9.84278
37843245,-0.0234358,0.0106526,0.00852211,14.7,-16.35,33,-1.57113,1.25858,9.82841
37856382,0.0106526,0.00319579,0.0149137,15.75,-16.05,33,-1.56874,1.35199,10.0559
37879203,0.00958738,0.00958738,0.0191748,15.45,-17.1,33,-1.52323,1.39749,9.75656
37891378,-0.0149137,0.00426106,0.0149137,14.85,-15.9,33.15,-1.60466,1.26098,9.91702
37914222,0.00958738,0.02024,0.00958738,17.1,-16.95,32.4,-1.53042,1.32085,9.93618
37926382,0,0.0308927,-0.00213053,16.8,-16.35,33.6,-1.49928,1.11728,9.89068
37949203,0.0181095,0.0170442,0.0213053,16.65,-16.65,33.15,-1.60706,1.30169,9.88828
37961389,0.0106526,0.0181095,0.0149137,15.9,-15.45,33.45,-1.6837,1.44539,9.79248
37984204,-0.015979,0.00852211,0.0106526,15.45,-16.05,33.3,-1.53042,1.16757,9.81404
37996376,0.02024,0.0106526,0.0223706,16.35,-16.2,33.45,-1.69328,1.33522,9.91223
38019203,0.0191748,0.00852211,0.0223706,15.45,-16.8,33.3,-1.57832,1.25619,9.80206
38032381,0.0127832,0.0234358,0.0181095,15.75,-16.05,34.35,-1.67891,1.33043,9.85954
38045382,0.0287621,0.0117179,0.0245011,15.75,-16.8,33.3,-1.61903,1.21547,9.82841
38068203,0.0245011,0.0117179,0.0319579,16.2,-16.05,33.3,-1.75794,1.22745,9.76614
38080380,0.0319579,-0.0106526,0.02024,16.65,-15.9,33.75,-1.51365,1.31846,9.89547
38103210,0.0458064,-0.0255663,0.0234358,17.7,-17.4,33.15,-1.66933,1.43342,9.77811
38115376,0.036219,-0.0181095,0.0298274,17.25,-16.8,33,-1.42983,1.31127,9.98648
38138203,0.0681769,-0.00213053,0.0468716,15.45,-15.3,33.9,-1.64538,1.3951,9.89068
38150381,0.056459,0,0.0340885,15.3,-17.7,33.75,-1.57353,1.22505,9.7853
38173203,0.0585895,-0.0213053,0.0245011,15,-16.05,33.9,-1.4897,1.09333,9.89307
38185376,0.0820254,-0.0234358,0.0436758,16.5,-15.3,33,-1.41546,1.42863,9.97211
38208216,0.0692422,-0.0394148,0.0340885,15.9,-15.45,35.25,-1.40348,1.45497,9.8332
38221382,0.0596548,-0.0468716,0.052198,15.9,-14.7,33.75,-1.78189,1.60347,9.89307
38244203,0.0585895,-0.0617853,0.0415453,15.9,-16.2,34.2,-1.47054,1.51006,9.90984
38256378,0.0351537,-0.0671117,0.0479369,16.35,-16.95,33.15,-1.6358,1.4885,9.85954
38279209,0.0703075,-0.0703075,0.056459,16.5,-16.8,33.3,-1.56395,1.59868,9.87152
38292382,0.0809601,-0.0692422,0.0330232,15.3,-16.65,33.75,-1.32684,1.43581,9.67752
38315203,0.0841559,-0.0617853,0.0596548,17.1,-16.95,33.45,-1.47533,1.34959,9.87152
38327384,0.167247,-0.0990696,0.0692422,15.9,-15.45,34.8,-1.40348,1.60107,9.91223
38350203,0.135289,-0.103331,0.0873517,15.9,-16.65,33.75,-1.49449,1.15799,9.77332
38362379,0.148072,-0.106526,0.0798948,15.45,-15.6,33.6,-1.48252,1.56515,9.96253
38385216,0.20027,-0.0884169,0.076699,16.35,-16.2,33.15,-1.08734,1.84536,9.93379
38397379,0.231162,-0.0916127,0.056459,15.75,-15.3,33,-1.52802,1.41426,9.66315
38420203,0.270577,-0.052198,0.0639159,14.55,-15.9,33.45,-1.11129,2.02978,10.0176
38432379,0.298274,0.02024,0.0649811,15,-14.85,33.6,-1.40588,0.887355,9.66794
38456212,0.42291,0.0777643,0.0585895,15.6,-15.15,34.2,-1.25499,1.249,9.8308
38468382,0.507066,0.186421,0.0671117,16.8,-16.05,33.6,-1.10171,1.35438,9.70147
38481378,0.689226,0.208792,0.0809601,15.45,-14.85,34.35,-1.60466,1.26577,9.60567
38504241,0.82558,0.203465,0.112918,15.75,-14.85,34.35,-1.27894,1.48371,9.58411
38517382,0.994957,0.238619,0.140615,15.6,-14.4,33.75,-1.38672,1.93398,9.76374
38540203,1.03118,0.276969,0.192813,15.45,-13.8,36,-0.969983,1.98667,9.71345
38552378,1.1931,0.235423,0.218379,15.45,-13.5,34.95,-1.40348,1.80944,10.3721
38575212,1.26553,0.351537,0.374973,16.5,-13.8,36.45,-1.42743,2.90875,10.602
38587382,1.28684,0.415453,0.392017,18.15,-13.65,35.85,-0.934058,3.02371,10.7361
38610203,1.45302,0.664725,0.548611,17.1,-11.85,35.55,-2.28485,3.56978,10.9756
38622383,1.1867,0.56246,0.546481,18.3,-11.55,36,-1.97829,4.12782,9.83559
38645203,1.06846,0.276969,0.452737,17.4,-11.1,36.6,-2.17228,4.09189,10.4918
38657379,1.15368,0.173638,0.447411,16.5,-11.25,37.5,-2.12678,3.67995,10.5948
38680203,0.998153,0.0671117,0.369647,18.45,-10.65,36.6,-2.98898,1.95553,12.894
38693379,0.411192,-0.116114,0.241815,18.75,-9.9,36.9,-0.993933,-0.647853,9.0596
38716203,0.361125,-0.151268,0.351537,17.7,-9.9,35.85,-0.112566,-0.233514,11.56
38728379,-0.00639159,-0.124636,0.40267,17.7,-8.85,37.35,-0.814307,-1.09093,11.3804
38751216,-0.376038,-0.206661,0.370712,19.2,-9.6,36.3,-1.13045,-1.05022,9.23205
38763379,-0.519849,-0.269512,0.269512,18.45,-9.15,36.6,-2.10283,-1.12925,10.0056
38786203,-0.646616,-0.246076,0.125701,17.7,-9.6,35.55,-2.30161,-0.657433,10.2954
38798379,-0.999218,-0.238619,-0.0649811,16.2,-9,34.35,-2.62734,-0.300575,9.94816
38821209,-1.10361,-0.201335,-0.219444,17.4,-8.1,34.8,-2.69679,0.00838257,10.2978
38833382,-1.23784,-0.196009,-0.345146,16.5,-9,34.35,-2.75188,0.396376,9.96253
38856203,-1.42426,-0.188552,-0.485761,17.85,-8.7,33,-2.94827,0.94723,10.8678
38868384,-1.53398,-0.191748,-0.593352,16.35,-9.15,31.65,-2.88839,1.2514,11.3564
38891203,-1.68205,-0.181095,-0.633832,15.9,-8.4,31.05,-2.17707,1.45258,10.6427
38904378,-1.73319,-0.118244,-0.593352,16.35,-7.35,30,-1.90165,1.75675,10.7792
38917378,-1.67566,-0.0383495,-0.526241,15.75,-9,30.15,-1.65735,1.93637,10.4822
38940209,-1.6224,0.0351537,-0.419714,15,-9.3,27.75,-1.17595,2.18067,10.5852
38952382,-1.53292,0.0490022,-0.258859,14.7,-8.7,27.75,-1.22386,2.36748,10.9301
38975203,-1.60429,0.0255663,-0.116114,14.85,-8.1,27.9,-1.22625,2.40819,9.98169
38987384,-1.3891,0.113983,0.0372843,15.45,-9,25.2,-1.3939,2.54471,10.099
39010203,-1.24849,0.26312,0.0692422,15.3,-8.4,26.85,-2.26329,2.76745,9.062
39022379,-1.05568,0.304666,-0.0447411,12.9,-8.7,25.65,-3.21651,3.58654,10.0464
39045216,-1.05674,0.118244,-0.199204,13.05,-6.6,26.1,-3.45841,3.86676,11.5217
39058379,-0.984304,0.0426106,-0.248207,12.15,-8.25,25.2,-1.58311,4.24038,13.2245
39081203,-1.39763,0.123571,-0.172573,12,-7.65,25.05,-0.0502954,3.42847,9.76374
39093379,-1.16327,0.12144,0.00639159,12.45,-8.1,24,-0.318538,2.61656,8.67161
39117204,-0.797883,0.0458064,0.131028,13.05,-6.9,24.3,-0.65863,2.65009,8.22614
39129382,-0.74462,-0.0340885,0.151268,11.4,-6.15,25.05,-1.02746,2.3579,7.53158
39152203,-0.395213,0.00106526,0.152333,12,-7.35,24,-2.0693,2.24773,7.9076
39164400,-0.183225,0,0.0351537,12.45,-6.15,25.8,-3.06802,2.8848,10.0128
39187203,-0.211988,-0.00532632,-0.0884169,12.15,-5.7,24.9,-2.22258,3.00695,10.7888
39199378,-0.511327,0.0713727,-0.199204,12.6,-5.7,24.15,-1.49449,2.75787,9.77811
39222203,-0.36219,0.120375,-0.142745,12.9,-6.75,24.9,-0.802332,1.8286,8.16147
39234379,-0.171508,0.0905475,-0.0798948,12.45,-6.6,25.35,-1.36277,1.80465,8.23811
39257203,0.0447411,0.00639159,-0.0617853,11.85,-5.7,23.55,-1.71244,1.93877,9.28234
39269378,-0.160855,-0.00745685,-0.0490022,11.85,-6.45,23.85,-1.32205,1.86692,10.0224
39292216,-0.0575243,0.123571,0.0223706,12.75,-6.15,24.75,-1.73878,1.18913,8.98536
39305382,0.0735032,0.214118,0.036219,12.75,-5.55,23.7,-2.36867,1.45976,10.2284
39318378,-0.173638,0.103331,-0.14168,11.4,-5.55,25.05,-3.25962,0.813109,9.67752
39341204,-0.076699,-0.00745685,-0.299339,12.45,-4.05,24.75,-2.38783,0.597557,9.15301
39354382,0.0884169,0.0319579,-0.360059,12.9,-6.75,23.85,-1.86812,0.568817,8.55426
39377203,0.175769,0.0468716,-0.397344,10.8,-5.7,24.6,-1.47533,1.07177,7.68007
39389378,0.54435,0.0223706,-0.395213,11.4,-4.8,23.7,-1.12566,1.64897,7.28729
39412216,0.691357,-0.0181095,-0.336624,10.95,-6.6,22.95,-0.179626,0.837059,7.97466
39425382,0.823449,-0.0447411,-0.26099,11.7,-4.05,24,-0.328118,-0.396376,12.5683
39448203,0.508131,0.00745685,-0.0830906,10.95,-5.1,22.65,0.292192,-0.135319,9.88349
39460384,0.555003,0.02024,0.0553937,11.55,-6.75,23.1,-0.399968,-0.405956,8.90632
39483204,0.692422,0.0138484,0.127832,11.7,-5.1,23.7,-0.505349,0.0993933,10.4248
39495378,0.555003,-0.0692422,0.236489,11.4,-4.8,23.7,-1.27176,-0.329315,9.94097
39518203,0.546481,-0.124636,0.299339,9.9,-5.1,22.95,-2.35191,-1.14362,8.93506
39530384,1.21014,-0.144876,0.36432,10.8,-4.95,22.8,-2.96503,-0.00598755,8.98536
39553203,0.94702,-0.36219,0.247141,9.9,-5.55,21.9,-3.71947,0.839454,11.1217
39565378,0.961934,-0.431432,0.148072,11.1,-4.2,23.55,-3.08,1.922,11.1936
39588216,0.604005,-0.498544,0.0671117,9.75,-3.45,23.85,-1.68609,1.91721,12.0941
39600382,0.468716,-0.369647,0.0351537,11.55,-5.25,23.1,-0.359253,2.24773,11.5241
39623203,0.123571,-0.2024,0.0266316,9.9,-5.1,22.35,-0.720901,1.45497,12.7647
39635378,0.279099,-0.113983,0.0266316,9.9,-3.6,22.65,-0.780776,1.3448,9.67033
39658209,0.187487,-0.0490022,0.0181095,11.55,-5.25,22.05,-1.08494,1.13404,10.0128
39671382,0.229032,-0.00213053,0.02024,10.05,-4.2,23.55,-0.866997,1.64658,10.9157
39694203,0.0841559,0.0607201,-0.0149137,8.7,-4.95,22.8,-0.799937,1.63939,10.6044
39706384,0.0213053,0.108657,0.00426106,10.5,-4.5,22.8,-0.847837,1.63939,10.1062
39729203,-0.0149137,0.0671117,-0.0298274,11.1,-4.5,23.1,-1.23344,1.09812,9.82362
39741379,0.0266316,0.0639159,-0.0266316,10.65,-4.35,23.7,-1.18793,0.892145,9.89307
39764246,-0.00639159,0.0372843,0.00213053,10.5,-4.2,22.05,-1.52563,0.564027,9.45239
39777379,0.15979,0.0745685,0.0117179,10.95,-3.3,23.25,-1.4921,0.978366,10.3098
39790377,0.00106526,0.104396,0.0660464,9.9,-4.8,21.9,-1.91841,1.10051,9.7374
39813203,0.00745685,-0.0106526,-0.0213053,11.1,-4.2,22.05,-0.723296,1.23463,10.2356
39825408,0.0479369,0.0873517,0.0266316,10.2,-4.35,22.35,-1.88728,1.13404,10.1733
39848203,0.0735032,0.126766,0.0660464,12.15,-3.75,22.8,-1.65735,0.614323,10.0128
39861378,0.198139,-0.00639159,-0.056459,9.9,-3.3,22.35,-0.61552,1.51964,9.90984
39884248,-0.111853,0.0308927,-0.0319579,10.95,-4.05,22.35,-1.61424,1.46455,9.72303
39897382,0.143811,0.072438,0.0596548,9.9,-2.85,22.95,-1.50407,0.94723,10.59
39920203,-0.0138484,0.0958738,0.0490022,10.8,-3,22.8,-1.30768,1.922,9.36617
39932378,0.00106526,0.0841559,0.0149137,10.2,-4.35,22.35,-0.514929,2.11121,10.3817
39956212,-0.0980043,0.0980043,0.0639159,10.8,-5.7,21,-2.06211,0.729283,9.2057
39968382,-0.0681769,-0.00852211,-0.0468716,8.25,-5.7,22.8,-0.979563,0.990341,10.2978
39981679,0.0458064,0.0617853,0.0617853,10.2,-4.05,22.35,-1.54239,0.743654,10.1374
40004248,-0.0415453,0.0756338,0.0543285,9.9,-4.35,23.7,-2.57704,1.03106,8.83208
40017379,-0.0426106,0.076699,-0.0138484,10.2,-3.6,22.95,-1.36516,1.47174,10.408
40040203,0.107592,0.0916127,0.0553937,12.9,-5.25,21.75,-1.99266,0.872985,10.0056
40052378,0.0138484,0.0383495,-0.052198,10.65,-4.35,23.25,-0.890947,2.16869,9.64399
40076212,-0.127832,0.140615,0.0138484,11.55,-3.45,23.55,-1.13045,0.89454,9.93139
40088382,0.0830906,0.0937433,0.0298274,10.8,-4.2,22.5,-1.99266,1.12446,9.88828
40111203,0.0213053,0.0628506,-0.02024,10.65,-3.6,21.9,-1.47533,1.22505,9.92421
40123421,0.00213053,0.0255663,-0.0213053,10.2,-4.35,22.95,-1.5855,1.38552,10.2212
40146203,-0.0191748,-0.00745685,-0.0266316,10.8,-4.5,22.8,-1.45617,0.983156,9.89307
40158379,0.0330232,0.0671117,0.0500674,10.5,-4.95,23.55,-2.05732,0.762814,9.75416
40181204,0.0820254,-0.00639159,-0.0468716,10.5,-4.95,22.05,-1.8274,1.68729,9.72542
40194382,-0.0351537,0.0479369,0.0255663,11.4,-4.35,23.7,-1.54,1.62263,9.93618
40217203,0.0596548,0.0223706,-0.0340885,11.85,-3.75,22.8,-2.08127,1.249,9.88589
40229379,-0.0383495,0.0181095,-0.00213053,11.1,-4.2,23.85,-1.11129,1.65137,9.7829
40252216,-0.00852211,0.00852211,0.00106526,9.9,-4.8,23.25,-1.72681,1.13404,9.99606
40264379,0.0138484,0.00426106,0.00958738,10.5,-2.7,22.5,-1.49449,1.18913,9.80206
40287203,-0.0245011,-0.0255663,0.0106526,10.8,-3.75,21.45,-1.4442,1.249,9.79009
40299382,-0.00639159,-0.0383495,0.00958738,9.3,-4.2,23.1,-1.62382,1.24421,9.96013
40322209,-0.02024,-0.0458064,0.00106526,10.8,-5.7,22.05,-1.54718,1.20829,9.83559
40334382,-0.00639159,-0.0170442,0.00639159,9.75,-3.75,23.85,-1.37714,1.17476,10.0679
40357203,0,-0.00852211,0.0127832,10.5,-4.5,22.5,-1.5879,1.2969,9.82122
40369384,-0.0191748,-0.0255663,0.00745685,12,-4.05,22.35,-1.63101,1.26337,9.87391
40392203,-0.00106526,-0.0319579,0.00745685,11.55,-4.5,23.1,-1.56155,1.35438,10.0128
40404378,-0.0117179,-0.0330232,0.0127832,11.7,-3.6,22.65,-1.64777,1.249,9.84517
40427216,-0.0255663,-0.0415453,0.0191748,9.6,-4.05,23.25,-1.67412,1.36157,9.94576
40439382,0.0117179,-0.0319579,0.0106526,10.2,-4.35,22.65,-1.24781,1.33043,10.0583
40462203,-0.0298274,-0.0106526,0.00958738,10.95,-3.6,21.3,-1.4897,1.23703,9.75895
40474378,0,-0.0117179,0.00426106,9.3,-4.5,23.1,-1.59269,1.23463,10.0008
40497209,0.0149137,-0.0170442,0.00745685,9,-4.2,22.05,-1.52084,1.14362,9.70147
40509382,0.0308927,-0.0276969,0.0149137,10.2,-4.8,22.95,-1.5855,1.22505,9.87631
40522675,0.0660464,-0.0330232,0.02024,11.85,-4.2,22.8,-1.50407,1.23703,9.87391
40545216,0.0649811,-0.04048,0.0298274,10.95,-2.85,22.35,-1.42264,1.19152,9.79967
40558382,0.0958738,-0.0340885,0.0426106,12.15,-4.2,23.1,-1.4418,1.07896,9.81164
40581203,0.0607201,-0.0340885,0.0287621,11.55,-2.4,22.05,-0.893342,1.31127,9.77332
40593378,0.111853,-0.0308927,0.0117179,10.5,-4.5,22.5,-1.26697,1.32804,9.89068
40616209,0.111853,-0.00106526,0.0372843,10.8,-4.95,22.8,-1.34121,1.2969,10.0368
40628382,0.18003,0.015979,0.0490022,10.8,-3.45,22.05,-1.67412,1.16278,9.82601
40651203,0.151268,-0.0340885,0.00639159,9.3,-4.2,23.55,-1.24781,1.70885,9.79967
40663431,0.197074,-0.0532632,-0.0394148,9.6,-2.85,22.65,-1.24302,1.36636,9.82841
40686203,0.287621,0.0266316,0.0223706,10.2,-4.05,22.35,-1.07776,1.21787,9.84038
40698379,0.358994,0.04048,-0.0340885,10.05,-3.75,22.8,-0.421523,1.60347,9.929
40721206,0.337689,0.0809601,-0.0308927,11.55,-4.95,22.5,-1.43462,1.3448,9.6871
40734382,0.482565,0.0884169,-0.0585895,12,-2.85,21.6,-1.79387,1.54359,10.1757
40757203,0.433563,-0.0415453,-0.20027,10.8,-4.5,23.1,-2.75906,1.78549,9.6368
40769379,0.493217,-0.267381,-0.488956,11.55,-4.2,23.1,-3.47757,1.64658,9.84278
40792216,0.608266,-0.491087,-0.843689,9.6,-5.55,24,-3.24765,1.86931,10.2451
40804379,0.400539,-0.722249,-1.24636,10.65,-2.85,21.9,-3.13748,1.73998,10.4367
40827203,0.287621,-0.929976,-1.73105,10.2,-3.3,22.95,-4.31583,0.496967,10.2427
40839382,0.273773,-1.00454,-2.2786,11.4,-2.85,23.7,-4.96967,1.40228,9.85954
40862209,0.332363,-0.892692,-2.92522,9.75,-3.45,22.8,-5.23072,2.52315,9.45957
40875382,0.332363,-0.76699,-3.43441,8.85,-1.8,23.25,-5.19959,2.55189,9.69429
40898203,0.302535,-0.82558,-3.85839,7.95,-0.45,22.5,-3.74102,2.63093,8.90153
40910384,0.272708,-0.854342,-4.0267,7.35,-1.35,21.9,-1.96871,2.93989,9.65836
40933203,0.401605,-0.818123,-4.07037,8.1,0.3,22.35,-0.890947,2.84648,8.97338
40945378,0.389887,-0.803209,-4.05546,6,0.6,22.35,0.00239502,2.79619,8.29799
40968216,0.513457,-0.809601,-3.88928,5.7,3.3,22.65,0.665815,3.02611,9.59609
40981382,0.519849,-0.777643,-3.67942,6.75,3.3,23.25,1.17116,3.00455,9.55298
40994679,0.44528,-0.777643,-3.48235,5.1,4.2,22.8,1.27415,2.73631,9.56735
41017203,0.525175,-0.768056,-3.18408,5.1,6,22.5,0.371228,2.61895,9.77332
41029384,0.499609,-0.840494,-2.987,5.1,6,21.75,0.407153,2.77703,9.56974
41052203,0.429302,-0.875647,-2.75584,5.1,6,21.45,0.246687,2.62374,9.4452
41064379,0.509196,-0.770186,-2.49378,6,6.9,22.35,0.107776,3.03808,10.6331
41087216,0.198139,-0.714792,-2.32334,5.25,8.1,21.3,-0.395178,2.96144,10.7649
41100379,0.143811,-0.699879,-2.16888,6.9,9,22.5,-0.843047,2.53273,9.6895
41123203,0.211988,-0.644485,-2.05596,4.95,8.1,22.35,-1.09692,2.86564,9.96492
41135379,0.0319579,-0.610397,-2.07833,5.7,11.85,21.3,-1.74118,2.78182,9.1075
41158209,0.13955,-0.609331,-2.08579,5.85,11.25,21,-1.68609,2.61656,8.93746
41170382,0.234358,-0.511327,-2.04211,6.15,11.25,21,-1.36277,2.88001,8.44409
41193203,0.267381,-0.446346,-2.05596,6.75,12.45,21.6,-1.99505,3.02611,8.99494
41205384,0.380299,-0.409062,-2.07513,7.05,11.85,19.5,-1.70046,2.983,8.97817
41228203,0.451672,-0.360059,-2.10922,7.35,12.45,20.55,-1.1065,3.3183,9.36617
41240378,0.253533,-0.24288,-1.90469,7.35,13.95,21.6,1.37714,3.81167,13.2317
41263240,-0.169377,-0.470847,-1.81947,7.8,13.2,21.6,-0.565225,2.60458,7.68486
41276382,0.104396,-0.420779,-1.67673,7.2,13.8,19.95,0.531694,3.29674,11.0451
41299203,0.0969391,-0.313188,-1.53078,7.35,14.7,20.55,0.0550855,2.87762,9.16259
41311378,-0.0191748,-0.289752,-1.45515,8.25,14.25,20.4,0.409548,3.22489,9.20331
41334222,0.117179,-0.190682,-1.25595,7.65,14.25,20.7,0.902922,3.40692,9.99845
41347382,-0.00958738,-0.150202,-1.12705,8.85,15.15,20.25,-0.546064,3.45721,11.7612
41360378,-0.213053,0.0330232,-1.2421,8.25,14.85,20.7,-2.61776,3.74222,12.2833
41383240,-0.793622,0.137419,-1.57766,9.9,14.7,20.85,-1.81063,3.24405,10.3817
41396379,-0.449542,0.335558,-1.53398,9.9,17.4,20.55,-0.301772,1.44539,6.18079
41419203,-0.0617853,0.438889,-1.3188,10.65,15.45,20.85,0.821492,1.54359,6.68375
41431378,0.165116,0.433563,-1.04609,9.6,15.45,20.55,0.337698,1.9723,8.78657
41454209,0.112918,0.325971,-0.804275,11.4,17.4,20.25,-0.0934058,2.32676,9.02607
41466382,0.175769,0.18003,-0.610397,8.7,16.35,21.75,-0.419128,1.88847,7.36633
41489203,0.852211,0.168312,-0.336624,10.05,16.05,21,-0.201182,2.61177,5.74729
41501421,-0.541154,-0.167247,-0.541154,11.1,16.05,22.8,-3.93262,2.24533,16.0459
41524204,0.697748,0.164051,-0.0809601,11.1,17.1,19.35,-1.00591,3.16981,11.366
41536376,-0.944889,-0.155529,-0.243946,9.3,17.1,20.7,-1.52802,2.71236,8.86321
41559203,-0.160855,-0.0948085,0.0223706,11.55,17.55,21.75,-1.98068,1.7807,13.0473
41571381,-0.54435,-0.243946,0.0649811,11.7,19.2,20.55,-0.886157,1.66334,8.17105
41594203,-0.638093,-0.351537,0.0553937,11.1,16.35,22.05,-1.34121,1.61305,10.8415
41606376,-0.606135,-0.302535,0.133158,10.5,16.05,21.45,-1.14482,1.45497,9.65836
41629216,-0.509196,-0.230097,0.0809601,10.5,16.35,21.75,-0.0910107,1.55557,9.75656
41641379,-0.478304,-0.0639159,0.0458064,10.65,16.2,21.3,-0.457449,1.49569,9.75656
41664203,-0.335558,-0.00426106,0.0340885,9.75,17.55,21.75,-1.13284,1.62023,10.3601
41676378,-0.314253,-0.0394148,0.052198,10.65,16.65,21.3,-1.36516,1.13644,9.55058
41699209,-0.255663,-0.0692422,0.00213053,9.6,16.65,20.55,-0.967588,1.45976,9.89068
41711382,-0.134223,-0.0266316,-0.00745685,10.95,15.9,22.95,-1.12326,1.21547,9.93379
41734203,-0.153398,-0.00639159,-0.0276969,10.95,15.15,21.3,-1.14482,1.22505,9.79727
41746384,-0.11931,0.0458064,-0.02024,10.2,16.95,21.9,-1.13045,1.22745,10.0679
41769203,-0.0788296,0.0777643,-0.00958738,10.65,15.9,22.65,-0.900527,1.18673,9.93858
41782379,-0.0852212,0.0788296,-0.0127832,10.2,16.65,22.35,-1.32205,1.19871,9.75416
41805216,-0.0532632,0.076699,-0.015979,10.05,16.35,22.5,-1.47533,1.45976,9.99845
41817379,-0.0798948,0.110787,-0.0351537,9.3,16.35,22.8,-0.761616,1.07896,9.73979
41840203,-0.0298274,0.223706,-0.00745685,10.5,15.6,21,-0.866997,1.02866,9.87631
41852379,-0.0234358,0.201335,0.00532632,9.9,15.9,21.9,-1.60945,1.22026,9.83799
41875209,-0.00106526,0.116114,-0.015979,11.4,16.95,20.55,-1.61903,1.45258,9.735
41887382,-0.0181095,0.0468716,-0.015979,10.95,15.9,22.95,-1.11847,1.43102,10.4128
41910203,0.00852211,0.0958738,0.0149137,12,17.4,21.6,-1.67172,0.729283,9.89786
41922425,0.02024,0.0170442,-0.0170442,10.8,16.05,21.45,-1.41067,1.03106,9.85954
41945203,0.00639159,0.0181095,0.00213053,10.5,16.8,23.1,-1.12805,1.06938,10.1613
41957376,0.166181,-0.0138484,-0.0745685,9.75,16.05,23.1,-0.790356,1.69448,10.1469
41980203,-0.0276969,0.0649811,-0.00745685,9.9,16.2,22.65,-0.862207,1.32804,9.7326
41992384,-0.00852211,0.0916127,0.00532632,11.4,16.2,21.6,-2.02619,1.22026,10.1685
42015203,0.0490022,0.02024,0.00532632,10.95,16.65,21.6,-1.22146,1.44539,10.0631
42027378,-0.00319579,0.00745685,-0.00213053,10.65,16.65,22.65,-1.12566,1.38073,9.85954
42050216,0.0127832,0.0266316,0.02024,10.8,16.8,21.75,-1.15679,1.33043,10.0895
42063382,0.00852211,0.0149137,-0.00213053,11.55,16.05,22.5,-1.20709,1.42623,9.92421
42076377,0.0553937,0.0117179,-0.0234358,10.2,16.95,23.25,-0.967588,1.40707,10.0607
42099203,0.0553937,0.0735032,-0.0532632,11.4,16.65,21.3,-0.258662,2.66685,10.1062
42111384,0.036219,0.0596548,-0.0788296,11.1,16.35,22.05,-1.12566,1.90045,9.99127
42134203,0.0820254,0,-0.0681769,10.05,16.35,23.85,-0.548459,2.27886,10.3625
42146378,-0.0372843,-0.00213053,-0.0117179,10.95,16.2,20.85,-1.4897,1.43102,9.94097
42169216,-0.0308927,-0.0127832,0.0181095,10.8,17.1,22.5,-1.48491,1.49808,10.1254
42181379,-0.0447411,-0.0213053,-0.00213053,10.05,16.35,22.05,-1.14961,1.32325,9.93379
42204203,-0.00639159,-0.00106526,0.0181095,10.5,16.05,22.05,-1.59508,1.28732,10.0032
42216378,-0.0308927,-0.0117179,0.00213053,11.55,16.35,21.45,-1.02267,1.24421,9.75177
42239209,-0.0149137,-0.0287621,0.00532632,10.8,15.3,22.05,-1.4442,1.28253,9.98408
42251382,-0.00532632,-0.0308927,0.0191748,9.75,16.35,22.05,-1.21428,1.31846,9.59848
42274203,-0.0415453,-0.0298274,0.0117179,9.75,16.35,22.8,-1.22386,1.22026,10.0416
42286384,-0.00426106,-0.0106526,0.0191748,11.1,15.3,21.75,-1.43222,1.3472,9.98887
42309203,-0.0500674,-0.0181095,0.0170442,10.65,16.65,21.6,-1.26457,1.19871,9.78769
42321379,0.00852211,-0.00852211,0.015979,10.95,15.9,21.9,-1.1999,1.25619,9.79727
42344257,-0.0340885,-0.0223706,0.00852211,10.05,15.6,21.45,-1.2526,1.21308,9.77093
42357379,0.02024,-0.00852211,0.0149137,11.1,16.8,20.4,-1.20948,1.23942,10.0416
42380203,0.02024,0.00319579,0.0170442,11.1,16.35,21,-1.2023,1.15799,9.74219
42392379,-0.00532632,0.00106526,0.0138484,10.5,16.8,22.8,-1.26457,1.2011,9.96013
42416209,0.0234358,0.00639159,0.0149137,10.8,15.6,20.4,-1.346,1.249,9.99606
42428382,0.015979,0.00426106,0.0181095,9.15,15.45,21.9,-1.07057,1.36157,9.91942
42451203,-0.015979,0.0117179,0.00532632,10.65,16.65,21.6,-1.22865,1.26816,9.85475
42463379,-0.00426106,0.00852211,0.0106526,10.5,17.1,21.45,-1.16637,1.25379,9.9769
42486203,0.00639159,0.0181095,0.00958738,11.85,16.35,21,-1.13524,1.40707,9.91702
42498378,0.00213053,0.0170442,0.0106526,10.8,15.6,21,-1.24062,1.23942,9.8787
42521203,0.0127832,0.0149137,0.0117179,10.8,15.6,22.05,-1.08255,1.22745,9.98408
42533379,0.0117179,0.0106526,0.015979,9.9,16.65,21.9,-1.21188,1.28972,9.84996
42556203,0.0181095,0.00852211,0.0149137,10.8,16.35,22.5,-1.14721,1.22745,9.98887
42568378,0.036219,0.0127832,0.0213053,10.8,14.85,22.8,-1.15919,1.3448,9.88828
42591216,0.0213053,0.00532632,0.0127832,10.95,16.2,21.9,-1.09692,1.32804,9.92181
42604382,0.0287621,0.0170442,0.00745685,9.9,16.65,21.9,-1.18553,1.32325,10.02
42617378,0.0553937,0.0234358,0.0191748,11.1,16.8,21.45,-1.13763,1.22026,9.79488
42640203,0.0319579,0.0223706,0.0181095,10.65,17.4,21.9,-1.26218,1.23224,9.74698
42653384,0.1012,0.0181095,0.0383495,11.7,16.2,21.9,-1.27176,1.16039,10.1374
42676203,0.113983,0.0213053,0.0436758,11.1,16.8,22.8,-1.14721,1.3448,9.93139
42688378,0.117179,0.0234358,0.0383495,11.7,16.65,20.85,-1.09452,1.21787,9.89786
42711203,0.116114,0.0330232,0.0468716,10.2,15.9,21.3,-1.2981,1.43581,9.98887
42723378,0.160855,0.036219,0.0383495,11.1,16.05,20.7,-1.15679,1.52683,9.95055
42746203,0.164051,0.036219,0.0351537,10.5,16.05,22.05,-1.02028,1.41905,9.85954
42758379,0.174703,0.0458064,0.0372843,11.55,16.8,21.75,-1.14003,1.62981,9.9745
42781209,0.267381,0.056459,0.0596548,10.05,16.35,21.45,-1.41306,0.882565,9.69907
42793382,0.380299,0.0980043,0.0383495,10.05,16.8,22.5,-0.773591,1.12686,9.67033
42816203,0.518784,0.214118,0.072438,10.2,16.65,22.65,-0.780776,0.597557,9.55537
42829384,0.74675,0.272708,0.0671117,10.8,16.05,21.45,-0.534089,1.43102,9.86194
42852203,0.774447,0.361125,0.0649811,11.1,17.1,21,-1.10889,1.4406,9.89786
42864378,1.00561,0.419714,0.108657,10.05,16.05,20.7,-1.54958,1.72801,10.6092
42887216,1.00881,0.441019,0.14168,11.1,16.8,21,-1.30289,1.91721,10.2068
42900382,0.960868,0.444215,0.14168,11.1,15.3,19.95,-1.50647,2.22857,10.2859
42913377,0.980043,0.449542,0.166181,10.5,17.55,19.95,-1.18553,2.74589,10.7361
42936203,0.943824,0.50387,0.203465,10.65,16.2,20.25,-1.54718,3.27519,10.6499
42948384,0.720119,0.566721,0.207727,10.05,16.8,19.95,-1.65496,2.76745,9.98648
42971203,0.700944,0.511327,0.183225,11.1,17.1,20.7,-2.52914,2.23336,10.4703
42983379,0.516653,0.192813,0.118244,11.4,17.7,20.55,-2.63213,0.662223,9.5913
43006216,0.439954,-0.0372843,0.0575243,10.95,17.4,19.8,-2.64889,0.499362,10.5325
43019379,0.276969,-0.162985,0.0490022,10.5,19.05,20.7,-1.48252,-0.487386,9.71105
43042203,0.111853,-0.24075,0.0596548,10.8,17.85,18.9,-1.3939,-0.554447,11.0235
43054379,-0.0394148,-0.262055,0.105461,9.75,17.55,20.4,-1.78908,-0.88496,11.1433
43077209,-0.637028,-0.306796,0.0234358,10.65,18,19.8,-1.9256,-0.657433,11.3971
43090382,-0.68603,-0.241815,0.0127832,9.3,18.6,18.6,-2.33514,-0.95681,11.0762
43113203,-0.80747,-0.184291,-0.0468716,10.8,17.55,18.9,-2.22976,-0.793949,9.43083
43125384,-0.955542,-0.175769,-0.145941,10.5,19.8,20.7,-2.37346,-0.513732,10.0487
43148203,-0.861799,-0.0980043,-0.183225,10.65,19.2,20.25,-2.18426,-0.468226,10.3936
43160378,-1.01733,-0.0436758,-0.234358,10.05,19.35,20.7,-2.10043,-0.156874,10.1134
43183255,-1.0855,0.0117179,-0.262055,10.2,20.25,21.3,-2.1172,-0.00598755,10.5301
43196382,-1.05142,0.0585895,-0.280165,9.6,20.25,21.9,-2.18186,0.216749,10.4391
43219203,-1.13983,0.0426106,-0.312122,12,19.95,22.65,-1.95913,0.453856,10.7529
43231378,-1.13131,0.00958738,-0.290817,10.5,21.15,23.55,-1.5879,0.398771,10.5325
43255222,-1.10148,0.0106526,-0.236489,10.65,21.75,22.95,-1.17116,0.568817,10.0751
43268382,-0.973652,0.0692422,-0.138484,11.4,20.7,27.45,-0.455054,0.769999,10.3793
43281378,-1.08763,0.148072,-0.0266316,11.85,20.85,27.3,-1.13763,1.96032,13.5287
43304250,-1.40508,0.176834,-0.02024,10.95,20.7,27.15,-1.26218,1.79507,12.063
43317379,-1.52972,0.144876,-0.0234358,11.55,20.1,29.4,-0.859812,1.23224,9.49789
43340203,-1.20801,0.204531,0.0735032,11.4,19.5,30.3,-0.931663,1.37115,9.98169
43352378,-1.19416,0.18003,0.132093,12.45,18,30.6,-1.05141,1.62023,9.27995
43376209,-1.08444,0.0756338,0.185356,11.85,18.3,31.95,-1.04902,1.37354,8.868
43388382,-0.801079,0.00639159,0.322775,12.75,15.45,31.05,-0.505349,0.748444,8.25009
43411203,-0.597613,0.0436758,0.481499,11.55,15.6,31.95,-0.876577,1.47653,9.66554
43423434,-0.717988,0.136354,0.534763,10.65,13.2,32.4,-1.59029,2.33874,12.0845
43446203,-0.903344,0.267381,0.519849,9.9,13.2,31.35,-2.38544,2.116,10.7194
43458379,-0.92891,0.295078,0.421845,11.55,14.25,32.25,-3.33626,2.08965,8.65964
43471675,-0.700944,0.2024,0.214118,11.4,13.95,33.45,-3.56618,2.61177,8.75783
43495222,-0.693487,0.105461,0.0777643,12,13.2,34.2,-3.81527,2.12558,8.40097
43508382,-0.559264,-0.00426106,-0.0820254,11.7,13.65,33.75,-1.4921,3.14346,7.60583
43531203,-0.0948085,0.144876,-0.00639159,10.8,13.5,33,-2.18905,3.18897,7.59864
43543429,0.144876,0.171508,-0.168312,11.1,12.3,33.3,-3.69312,3.8931,5.8886
43566203,0.149137,0.036219,-0.327036,11.85,12.75,33.6,-2.63213,5.002,8.88477
43578379,0.567786,0.140615,-0.36432,12.15,11.55,33.9,-2.42855,4.60682,6.37479
43601208,0.672182,0.0916127,-0.351537,11.55,11.25,33.9,-1.82261,5.56004,6.53046
43614382,1.03437,0.0862864,-0.15979,11.85,12.75,33.6,-1.5376,1.14123,6.38676
43637203,0.982174,-0.42291,-0.167247,9.75,13.8,31.95,-2.57704,-1.70166,14.8915
43649379,0.485761,-0.553937,0.122505,11.1,12.75,33.6,0.301772,-2.41538,8.36265
43672216,1.17925,-0.626375,0.372843,10.05,13.05,33.3,-1.08015,-1.11009,5.58683
43685379,1.33371,-0.509196,0.291882,10.5,13.5,33.3,-2.43573,1.35917,12.5875
43698376,1.1164,-0.410127,0.189617,10.2,13.95,32.1,-1.34121,2.36269,13.0713
43721207,0.745685,-0.374973,0.165116,8.85,13.2,32.1,-0.809517,2.27407,13.658
43734382,0.517718,-0.265251,0.11931,9,13.5,31.95,-1.83459,1.47174,11.1864
43757203,0.406931,-0.243946,0.0894822,10.65,15.15,32.7,-1.18314,1.37354,10.8966
43769378,0.352602,-0.247141,0.0479369,9.75,15.6,32.25,-2.01182,0.765209,10.0871
43792216,0.450607,-0.299339,0.0468716,8.85,14.7,31.65,-2.05014,0.401166,8.99973
43805382,0.732902,-0.356864,0.0692422,9.6,14.7,30.3,-1.28373,0.896935,9.93379
43828203,0.621049,-0.392017,0.0340885,8.7,15.3,31.95,-1.24062,1.54838,10.0344
43840383,0.599744,-0.108657,0.104396,7.8,15.45,31.05,-0.517324,2.12558,15.2867
43863210,0.275903,-0.0490022,0.0809601,8.25,16.05,30.45,-0.0574805,1.70645,7.27532
43876376,-0.0745685,-0.122505,-0.00958738,8.25,15.6,30.9,-0.282612,2.07289,11.7301
43899203,0.423975,0.0607201,0.108657,8.1,16.95,32.1,-0.972378,1.44779,10.1014
43911381,-0.00426106,0.00745685,0.0426106,9.3,14.85,31.5,-1.17835,1.65616,9.75177
43934203,0.232228,-0.0170442,0.0617853,8.7,14.85,31.2,-2.0693,1.80944,10.9613
43946376,0.106526,-0.0117179,0.0649811,8.85,15.45,30,-1.93039,1.17236,9.51226
43969216,0.131028,-0.015979,0.0660464,8.85,17.4,30.3,-1.59987,1.49329,10.8966
43982382,0.0735032,0.036219,0.0436758,7.95,17.1,30.9,-1.2526,1.48371,9.52663
43995378,0.0980043,0.12144,0.0660464,7.95,15.6,30.45,-1.59029,1.31606,10.0487
44018203,0.183225,0.0905475,-0.0170442,8.1,15.45,31.35,-1.6334,1.249,9.74698
44030384,0.056459,0.16192,-0.00532632,8.1,15.45,29.55,-1.18074,1.87171,10.111
44053203,0.0234358,0.103331,-0.0308927,8.1,15.9,31.35,-1.93039,1.04064,9.93139
44065378,0.0213053,0.0436758,-0.0415453,7.35,17.7,31.05,-1.06339,1.61065,10.2739
44088216,-0.0213053,0.12144,0.00852211,7.8,15.15,31.65,-1.12566,0.901725,9.90984
44101382,-0.0383495,0.0692422,-0.0490022,8.1,15.9,32.1,-0.888552,1.58431,9.80925
44124203,-0.0287621,0.0990696,-0.0127832,7.05,15.9,31.05,-1.57832,1.07417,9.55058
44136378,0.0117179,0.0436758,-0.0372843,9,15.3,31.5,-1.18074,1.56275,10.0655
44159209,0.0308927,0.113983,0.0191748,8.7,17.55,30.9,-2.02858,1.61544,10.0368
44171382,0.0479369,0.0213053,-0.0809601,7.65,15.3,31.2,-1.42743,1.79746,9.61046
44194203,-0.0660464,0.103331,0.00426106,8.1,16.2,30.6,-1.72441,0.882565,9.58172
44206384,0.0255663,0.145941,0.0127832,7.95,15.6,31.95,-1.86093,1.02627,9.89068
44229203,0.072438,0.188552,-0.04048,8.7,15.6,30.9,-1.06818,1.66334,9.91702
44241379,0.137419,0.267381,-0.0756338,8.55,16.2,29.55,-2.11241,0.837059,9.70626
44264217,0.136354,0.213053,-0.0703075,7.65,15.6,30.9,-1.50168,1.7783,10.111
44277379,0.0703075,0.199204,-0.0138484,8.55,16.2,31.35,-1.28373,1.84776,9.66794
44300203,0.0127832,0.112918,-0.072438,8.25,16.8,30.45,-0.991538,2.20701,10.293
44312379,0.0191748,0.109722,0.00532632,8.7,15.6,30.45,-1.57592,1.25619,9.85475
44336209,0.0458064,0.0276969,-0.0245011,7.35,14.7,31.65,-1.20948,1.51006,9.81404
44348382,-0.00745685,0.052198,0.00958738,8.25,16.8,31.2,-1.12087,1.51964,9.96492
44361378,0.052198,0.0553937,0.00213053,9.3,17.55,31.5,-1.61664,1.39749,9.7829
44384203,0.0436758,0.0532632,0.0106526,9.3,16.05,30.9,-1.58311,1.48371,9.80925
44396379,0.0681769,0.0330232,-0.00426106,7.95,16.8,30.9,-1.5855,2.17588,9.88589
44419203,0.0308927,0.0245011,0.00532632,8.7,16.35,30.9,-1.69807,1.77112,9.91702
44431378,0.0127832,-0.02024,-0.0191748,9,15.6,30.45,-1.55197,1.62023,9.91223
44455222,0.0372843,-0.0106526,-0.00213053,8.1,14.7,31.65,-1.52323,1.66095,9.94576
44468382,-0.0106526,0.00213053,0.02024,7.95,15.6,30.9,-1.5376,1.54599,9.72542
44491203,-0.0245011,-0.00426106,0.00745685,8.1,16.65,31.05,-1.72202,1.59389,9.94337
44503426,-0.0308927,-0.0170442,0.00639159,8.7,17.1,30.45,-1.63101,1.75675,9.93379
44526203,-0.0191748,0.00532632,0.00532632,8.25,16.05,30.45,-1.52802,1.55796,9.7829
44538379,-0.0287621,0.00639159,0.00426106,9.15,16.65,30.3,-1.51844,1.54599,9.86194
44561214,-0.0330232,-0.00426106,0.00532632,8.55,16.65,30.6,-1.60227,1.57712,9.90505
44574379,-0.0298274,0.00213053,-0.00106526,9.15,16.65,30,-1.55197,1.57952,9.84278
44597203,-0.0383495,0.00639159,0.00532632,8.55,16.2,30.6,-1.59987,1.5867,9.88349
44609379,-0.0394148,-0.00319579,0.00213053,9.3,17.1,31.2,-1.63819,1.58191,9.88349
44632216,-0.0415453,-0.00958738,0.00532632,8.7,15.6,30.15,-1.51365,1.4909,9.76853
44645379,-0.0394148,0.00426106,-0.00532632,9.3,16.35,31.5,-1.48731,1.48611,9.80206
44658376,-0.02024,0.00426106,0.00852211,8.25,16.05,29.85,-1.53042,1.52922,9.91463
44681212,-0.0138484,-0.00106526,0.00639159,9.3,16.8,31.5,-1.59029,1.62263,9.82601
44694382,-0.0511327,-0.0117179,-0.00106526,7.35,15.9,30.6,-1.62382,1.53162,9.82841
44717203,-0.0468716,0.0181095,0.0127832,8.85,16.2,32.1,-1.76513,1.53641,9.96492
44729378,-0.0234358,-0.0149137,0.015979,8.85,17.7,30.6,-2.06451,1.4885,9.70387
44752216,-0.0713727,-0.00745685,0.0106526,9.3,14.85,30.9,-1.26218,1.35199,9.8787
44764382,-0.0394148,-0.0127832,-0.00426106,8.25,16.8,30.9,-1.95194,1.18673,9.82601
44787203,0.00745685,-0.0383495,-0.00319579,9.6,15.45,30.6,-0.876577,1.85494,9.95295
44799379,-0.0426106,-0.0287621,-0.0170442,8.1,15.9,30.6,-1.23344,1.29211,9.7374
44822210,-0.036219,-0.0372843,-0.0191748,8.1,14.7,29.25,-1.35319,1.48611,9.88589
44834382,-0.0255663,-0.0500674,0.00426106,8.85,16.2,31.05,-1.10171,1.32804,9.85954
44857203,0.015979,-0.0809601,-0.00852211,8.25,17.1,29.85,-0.862207,1.37354,9.85475
44869384,0.0287621,-0.0245011,0.0681769,9.3,16.05,30.9,-1.32684,1.76154,9.90026
44892203,0.0649811,-0.0511327,0.0500674,7.95,17.1,31.2,-1.47054,1.82141,9.96492
44904379,0.0223706,-0.0223706,0.0713727,7.65,17.1,30.15,-1.52084,1.5891,9.80925
44927216,0.0980043,-0.0671117,0.0372843,7.2,16.8,30.15,-1.33163,1.72561,10.0823
44940379,0.107592,-0.0553937,0.0852212,8.1,16.2,31.65,-1.88967,1.22984,9.72542
44963203,0.122505,-0.0830906,0.0511327,8.7,16.8,29.4,-1.29092,1.51485,9.80206
44975379,0.126766,-0.0596548,0.0543285,8.85,17.4,30.3,-1.46336,1.51485,9.91223
44998209,0.204531,-0.0692422,0.0458064,8.1,16.95,31.05,-1.5855,1.53401,9.88589
45010382,0.216249,-0.04048,0.0394148,8.7,16.05,31.5,-1.11847,1.65855,9.77093
45033203,0.280165,0.0149137,0.0596548,7.95,16.8,30.15,-1.30289,1.31367,9.7374
45045384,0.417584,0.0862864,0.0649811,7.95,15.3,30.45,-1.12087,1.36396,9.74458
45068203,0.527306,0.171508,0.0617853,9.15,16.95,30.6,-0.993933,1.38552,9.59848
45080378,0.702009,0.227967,0.0500674,7.35,16.95,30.6,-1.35079,1.18194,9.58411
45103248,0.929976,0.295078,0.0681769,8.25,17.55,30.45,-0.811912,1.67053,9.6895
45116382,1.07485,0.38456,0.092678,7.65,16.8,30.45,-1.19751,1.5412,9.48831
