timestamp,gyro_x,gyro_y,gyro_z,mag_x,mag_y,mag_z,accel_x,accel_y,accel_z
12645377,-0.0117179,0.00958738,0.00213053,21.6,14.4,76.35,-0.366438,0.667013,9.83955
12658373,-0.00958738,0.015979,0.00745685,22.05,13.65,77.4,-0.409548,0.626298,9.84674
12681203,-0.00852211,0.0117179,0.0117179,21.15,13.05,76.2,-0.296982,0.667013,9.86829
12693373,-0.00958738,0.0170442,0.00532632,22.35,13.95,77.1,-0.318538,0.724493,9.80842
12716209,-0.0149137,0.00852211,0.00958738,21,12.9,76.35,-0.352068,0.633483,9.85392
12729377,-0.00639159,0.0106526,0.00532632,22.05,12.9,76.35,-0.395178,0.602347,9.87309
12752203,-0.0127832,0.0127832,0.00745685,22.5,13.05,77.25,-0.359253,0.676593,9.82039
12764381,-0.00852211,0.00745685,0.00852211,21.15,12.3,77.25,-0.409548,0.619113,9.80123
12777377,-0.0149137,0.0106526,0.0127832,22.05,12.9,77.1,-0.356858,0.645458,9.87309
12800203,-0.00426106,0.00852211,0.00639159,21.6,13.2,77.1,-0.373623,0.638273,9.82518
12812376,-0.02024,0.00532632,0.00639159,20.7,14.25,76.65,-0.402363,0.602347,9.79165
12835209,-0.0117179,0.00532632,0.00532632,21,12.45,76.35,-0.361648,0.690963,9.84434
12847377,-0.0127832,0.0117179,0.0138484,22.95,12.3,76.2,-0.397573,0.662223,9.79884
12870203,-0.00532632,0.0181095,0.0138484,20.7,14.85,76.2,-0.337698,0.669408,9.85392
12882404,-0.00852211,0.0138484,0.00958738,21.3,14.4,75.75,-0.332908,0.597557,9.818
12905203,-0.00958738,0.00958738,0.00532632,20.55,12.45,77.1,-0.337698,0.698148,9.77968
12917376,-0.0170442,0.00958738,0.00639159,20.25,12.45,76.8,-0.335303,0.645458,9.82997
12940237,-0.00852211,0.0117179,0.00639159,21.45,12.3,75.9,-0.368833,0.657433,9.87548
12953378,-0.00958738,0.0117179,0.00745685,21,12.9,76.35,-0.342488,0.604742,9.8659
12976203,-0.00745685,0.0149137,0.00639159,20.7,12.75,74.85,-0.416733,0.619113,9.82997
12988376,-0.0106526,0.00745685,0.00532632,21.3,12.9,76.8,-0.340093,0.614323,9.76052
13011225,-0.00958738,0.0127832,0.00639159,22.5,14.25,76.2,-0.402363,0.652643,9.8635
13024379,-0.0117179,0.0117179,0.00852211,22.05,12.9,77.85,-0.330513,0.717308,9.83955
13047203,-0.0117179,0.00532632,0.00639159,20.1,12.75,76.95,-0.368833,0.717308,9.80602
13059376,-0.0106526,0.0138484,0.0117179,22.05,13.2,76.05,-0.323328,0.650248,9.80123
13082203,-0.0106526,0.0106526,0.0106526,22.2,14.25,77.25,-0.426313,0.607138,9.87787
13094377,-0.00426106,0.00745685,0.0138484,21.6,12.9,75.75,-0.383203,0.698148,9.84195
13117203,-0.0170442,0.00852211,0.0106526,22.05,12.15,75,-0.383203,0.705333,9.80602
13129381,-0.0106526,0.00852211,0.00745685,21.9,12.3,76.2,-0.356858,0.669408,9.83716
13152203,-0.00532632,0.0117179,0.00639159,21,14.4,75.3,-0.376018,0.609532,9.818
13164377,-0.0117179,0.0127832,0.00745685,21.45,13.05,75.15,-0.359253,0.614323,9.85153
13187216,-0.00532632,0.00852211,0.0106526,21.15,13.05,75.9,-0.335303,0.688568,9.818
13200377,-0.015979,0.00852211,0.00532632,20.55,12.9,76.8,-0.397573,0.611928,9.83237
13223203,-0.00745685,0.0127832,0.0106526,23.1,12.9,76.35,-0.323328,0.693358,9.79884
13235377,-0.00745685,0.0117179,0.00958738,21.6,13.65,76.8,-0.337698,0.659828,9.7701
13258209,-0.0255663,0.0117179,0.00426106,21.6,14.4,77.1,-0.356858,0.643063,9.84195
13270378,0.00106526,0.00852211,0.00852211,20.4,13.5,75.6,-0.335303,0.659828,9.86829
13283671,-0.00745685,0.0138484,0.00745685,21.15,12.3,76.2,-0.330513,0.626298,9.74375
13306216,-0.0213053,0.00745685,0.0138484,21.45,13.05,76.95,-0.301772,0.719703,9.85872
13319378,-0.0181095,0.00852211,0.00852211,23.55,13.8,76.2,-0.409548,0.571212,9.79644
13342203,-0.0138484,0.0106526,0.0127832,22.05,13.2,76.8,-0.354463,0.650248,9.93056
13355377,0.00106526,0.015979,0.0223706,21.3,12.15,75.75,-0.359253,0.686173,9.83955
13378209,-0.015979,0.00745685,0.0127832,22.05,12.9,76.8,-0.349673,0.664618,9.77489
13391382,-0.0149137,0.00852211,0.0117179,20.7,12.75,76.2,-0.440684,0.669408,9.81321
13414203,-0.0117179,0.00319579,0.0127832,21.15,13.8,76.95,-0.371228,0.568817,9.78447
13426382,-0.00852211,0.0106526,0.00639159,21,11.4,76.05,-0.352068,0.662223,9.8156
13449203,-0.00958738,0.00745685,0.015979,20.7,12.3,76.65,-0.337698,0.712518,9.88506
13461378,-0.0117179,0.0106526,0.0138484,21.45,13.05,76.95,-0.337698,0.726888,9.82039
13484216,0,0.0138484,0.0117179,21.3,13.65,75,-0.407153,0.647853,9.85153
13497378,-0.0117179,0.0117179,0.0138484,22.05,12.45,76.8,-0.306563,0.657433,9.82758
13510372,-0.0138484,0.00639159,0.0117179,21.3,12.15,76.35,-0.354463,0.693358,9.80363
13533203,-0.00852211,0.0117179,0.00745685,21.6,13.95,75.75,-0.342488,0.623903,9.85153
13545379,0.00213053,0.0106526,0.00958738,22.35,13.2,76.05,-0.289797,0.595162,9.84434
13568203,-0.00319579,0.00958738,0.00745685,19.35,13.05,76.65,-0.347278,0.655038,9.76291
13580373,-0.00852211,0.00852211,0.00426106,21.45,13.8,76.95,-0.356858,0.717308,9.87069
13603216,-0.0127832,0.0138484,0.00852211,21.9,12.3,78,-0.368833,0.674198,9.88985
13616378,-0.00745685,0.0138484,0.00958738,20.4,14.25,78,-0.280217,0.655038,9.75333
13639203,-0.015979,0.00426106,0.0117179,21.6,13.2,75.75,-0.399968,0.671803,9.85632
13651376,-0.00319579,0.0106526,0.0149137,22.2,14.25,76.2,-0.342488,0.688568,9.92099
13674209,-0.00532632,0.00958738,0.0149137,20.25,13.2,76.8,-0.378413,0.705333,9.81081
13686379,-0.00745685,0.00958738,0.00852211,20.4,12,76.95,-0.438289,0.655038,9.87309
13709203,0,0.00745685,0.0138484,21.45,14.25,76.95,-0.229922,0.640668,9.80602
13721408,-0.0276969,0.00532632,0.00639159,20.4,13.5,75.15,-0.301772,0.643063,9.7677
13744203,-0.00532632,0.00745685,0.0149137,21.6,13.2,77.4,-0.368833,0.640668,9.88985
13756376,-0.0127832,0.00639159,0.0170442,22.8,13.95,76.05,-0.335303,0.631088,9.80363
13779221,-0.0106526,0.00745685,0.0127832,21.45,12.75,75.9,-0.361648,0.669408,9.8659
13792378,-0.00426106,0.00958738,0.00852211,22.05,12.9,76.8,-0.376018,0.614323,9.79884
13815203,-0.0117179,0.0117179,0.00639159,21.6,13.2,78.15,-0.273032,0.645458,9.77728
13827376,-0.0106526,0.015979,0.0138484,22.5,12.75,75.9,-0.397573,0.667013,9.8156
13850217,-0.00958738,0.0117179,0.0149137,22.2,13.8,77.7,-0.275427,0.690963,9.84434
13863376,-0.0191748,0.0149137,0.0127832,21.6,13.2,76.8,-0.385598,0.645458,9.76531
13886203,0,0.00958738,0.00958738,21.45,14.55,76.65,-0.356858,0.676593,9.80363
13898386,-0.00213053,0.00639159,0.00852211,21.9,13.05,75.9,-0.409548,0.645458,9.80363
13921203,0,0.00852211,0.00532632,21.45,13.05,76.65,-0.316143,0.784369,9.85392
13933374,-0.00319579,0.0170442,0.0106526,19.95,12.9,75.75,-0.337698,0.698148,9.84195
13956203,-0.00319579,0.0117179,0.00745685,21.9,13.8,77.7,-0.380808,0.717308,9.77968
13968382,-0.0127832,0.0106526,0.00745685,22.8,12.9,77.4,-0.352068,0.640668,9.78447
13981377,0.00319579,0.00639159,0.0138484,21.15,13.5,76.2,-0.378413,0.585582,9.82279
14004203,-0.00532632,0.00958738,0.0106526,20.55,12.9,75.75,-0.342488,0.578397,9.83955
14016374,-0.0138484,0.0245011,0.00639159,20.55,13.65,77.85,-0.593965,0.554447,9.87309
14039210,-0.0127832,0.00213053,0,21.6,14.7,78.15,-0.213157,0.755629,9.84434
14052377,-0.0138484,0.0223706,-0.00852211,21.15,12.3,75.15,-0.416733,0.599952,9.77968
14075203,-0.0255663,0.0149137,-0.00426106,21.3,13.2,76.8,-0.385598,0.671803,10.1006
14087382,0.0596548,0.0298274,0.0181095,21.3,14.4,77.85,-0.419128,0.592767,9.70783
14110203,-0.0745685,0.00639159,-0.00745685,20.4,14.25,76.95,-0.292192,0.607138,9.47551
14122378,0.0213053,0.0170442,0.0117179,21.45,12.75,76.65,-0.570015,0.559237,10.1341
14145220,-0.0426106,0.00852211,-0.00319579,22.2,12.3,77.25,-0.474214,0.540077,9.80363
14158376,-0.00213053,0.00639159,-0.0117179,20.4,13.05,75.6,-0.423918,0.525707,9.86111
14181203,-0.0788296,-0.0255663,-0.015979,22.35,12.9,77.1,-0.210762,0.722098,9.34618
14193376,0.00958738,0.00426106,0.00958738,21.15,12,75.6,-0.402363,0.461041,10.2347
14216209,-0.0127832,0.00745685,-0.00106526,22.05,12.9,76.8,-0.167651,0.568817,9.63358
14229377,0.0245011,0.0149137,0.0117179,21.3,12.45,77.4,-0.404758,0.482596,10.0599
14252203,-0.00106526,0.0117179,0.0138484,22.8,13.65,75.3,-0.0910107,0.592767,9.73896
14264384,-0.00532632,0.0127832,0.015979,20.25,14.4,77.1,-0.349673,0.451461,9.85392
14287203,0.00213053,0.0191748,0.0266316,21,12.15,76.05,-0.277822,0.501757,9.88745
14299377,0.00213053,0.00852211,0.0191748,20.55,13.65,77.4,-0.296982,0.437091,9.77728
14322246,-0.0117179,0.0170442,0.0308927,21.45,13.5,77.25,-0.407153,0.403561,9.86829
14335377,0.00639159,0.00852211,0.0266316,21,13.2,76.8,-0.239502,0.477806,9.94733
14348376,-0.00745685,0.015979,0.04048,22.5,11.55,76.65,-0.347278,0.451461,9.84195
14371203,0.00745685,0.0234358,0.0458064,20.7,12.3,76.2,-0.385598,0.468226,9.94494
14383398,-0.00958738,0.0191748,0.0383495,20.55,13.2,78.15,-0.390388,0.310155,9.76291
14406203,-0.0191748,0.00745685,0.0436758,21.15,12.3,77.25,-0.136516,0.439486,9.86829
14418377,-0.00852211,0.0181095,0.052198,20.25,13.65,76.8,-0.289797,0.36045,9.92338
14441249,-0.0170442,0.00852211,0.0628506,21.45,13.8,76.65,-0.189207,0.444276,9.7198
14454374,-0.0117179,0.0213053,0.0873517,22.05,12.9,76.05,-0.0718506,0.290995,9.82518
14477203,0.00106526,0.0330232,0.0894822,22.2,13.05,76.95,-0.340093,0.465831,9.74615
14489374,0.00958738,0.0191748,0.0980043,21.3,12.45,76.35,-0.304167,0.290995,9.90422
14513222,-0.0298274,0.0106526,0.0830906,20.55,13.2,76.8,-0.251477,0.24549,9.73178
14526376,0.00213053,0.00639159,0.0980043,22.35,11.85,75.75,-0.438289,0.405956,10.0383
14549203,0.0426106,0.0468716,0.12144,20.55,14.4,76.35,-0.531694,0.621508,10.1581
14561402,-0.00745685,0.0394148,0.108657,21.3,13.65,76.05,-0.514929,0.540077,9.31744
14584203,-0.0692422,-0.0468716,0.0894822,19.5,12.45,77.85,-0.229922,0.650248,9.71501
14596376,-0.0426106,-0.0266316,0.0990696,22.2,14.25,76.95,-0.143701,0.578397,9.65274
14619230,-0.0319579,0.00852211,0.0820254,21.45,13.8,78.3,-0.548459,0.152084,10.024
14632382,-0.0479369,-0.00426106,0.0894822,21.6,13.2,76.35,-0.589175,0.238304,9.80123
14645372,-0.0436758,-0.02024,0.0543285,20.4,13.5,77.25,-0.445474,-0.0371228,10.309
14668203,-0.036219,0.0458064,0.0458064,22.2,13.8,78,-0.584385,0.393981,10.0048
14680421,-0.0298274,-0.0127832,-0.00958738,23.1,12.45,77.4,-0.589175,-0.33171,9.39887
14703203,-0.0426106,0.0245011,-0.0351537,20.7,11.55,77.7,-0.134121,0.741259,10.2275
14716374,0.0351537,0.0639159,-0.0394148,20.7,12.3,77.25,-0.936453,0.0778381,9.71022
14739233,-0.00745685,0.052198,-0.0458064,20.55,12.9,78.9,-0.0119751,0.343685,9.7701
14752377,-0.0532632,-0.00532632,-0.100135,21.15,12.75,78.3,-1.03704,0.0898132,10.0671
14775203,0.0415453,-0.0127832,-0.0841559,21.45,13.05,77.7,-0.0479004,0.616718,9.5761
14788377,-0.0276969,0.00426106,-0.112918,20.7,13.8,79.05,-0.380808,0.216749,9.98326
14811222,-0.00213053,0.0170442,-0.117179,21.6,12.45,77.85,-0.349673,0.26465,9.54257
14824378,-0.0117179,-0.00426106,-0.14168,22.5,13.05,79.65,-0.677791,0.132924,9.70064
14837372,-0.0468716,0.0138484,-0.124636,22.2,12.75,77.7,-0.737666,0.449066,10.4407
14860237,-0.0415453,-0.0713727,-0.156594,22.5,13.05,78.6,0.155676,0.30297,9.70543
14873377,0.00532632,-0.036219,-0.113983,21.3,13.2,79.5,-0.366438,0.609532,9.28391
14896203,0.0745685,0.0170442,-0.102265,22.5,13.05,79.35,-0.589175,0.772394,10.6108
14908374,-0.111853,-0.0692422,-0.192813,21.3,13.65,77.4,-0.517324,-0.0682581,9.1905
14931222,0.137419,-0.0958738,-0.125701,21,12.9,78.9,1.19032,0.408351,10.5892
14944378,0.0479369,0.0735032,-0.0916127,21.6,13.65,78.9,-0.689766,0.554447,9.85632
14967203,-0.0617853,-0.0340885,-0.140615,21.45,12,78,-0.0790356,-0.065863,9.21924
14979405,0.0617853,-0.0213053,-0.0916127,23.1,13.2,79.5,-0.998723,0.228724,10.1892
15002204,-0.0117179,-0.0234358,-0.11931,20.55,12.15,80.25,-0.694556,0.650248,9.44438
15014373,-0.221575,-0.0287621,-0.14168,22.95,13.05,80.1,-0.431104,0.34129,10.6371
15037206,0.185356,0.00426106,-0.0575243,21.15,12.75,79.65,-0.301772,0.235909,9.25517
15049377,-0.133158,0.00426106,-0.1012,22.2,14.25,79.35,-0.330513,0.611928,9.77728
15072203,0.00319579,0,-0.072438,22.8,12.9,81,-0.0550855,0.492177,8.88873
15084373,0.0308927,0.0468716,-0.0255663,22.8,12.45,79.5,-0.419128,0.386796,10.4599
15107217,0.115049,0.0575243,-0.0330232,22.35,11.85,79.95,-0.953218,0.29818,10.1509
15120376,-0.309992,-0.076699,-0.14168,22.2,12.75,80.4,-0.325723,0.2886,8.60133
15133376,0.107592,-0.0660464,-0.0607201,21.9,11.25,80.4,0.0335303,1.03106,11.1496
15156203,-0.15979,-0.0170442,-0.0777643,23.25,12.3,81.15,0.165256,0.458646,7.98102
15168382,0.0756338,0.0447411,0.015979,22.8,11.85,81.6,-1.04423,0.877775,12.7974
15191203,-0.0266316,0.0223706,0.00213053,22.2,12.75,81.15,-0.668211,-0.262255,7.9882
15203376,-0.0809601,-0.036219,-0.0266316,22.05,11.85,81.6,-0.526904,0.779579,9.98326
15226217,-0.16192,-0.0649811,-0.0383495,22.8,11.85,81.3,-0.292192,1.01908,10.9053
15239378,-0.100135,0.015979,-0.00106526,21.6,11.85,81.3,-0.912502,0.216749,9.01806
15262203,-0.0500674,0.0223706,0.00319579,21.45,12,83.55,-0.498164,0.228724,9.31505
15274376,-0.102265,-0.0617853,-0.0106526,22.2,11.55,81.75,-0.445474,0.425116,10.7784
15297209,-0.0127832,0.00532632,-0.00639159,23.55,11.55,83.25,-0.376018,0.592767,9.18092
15309380,-0.0500674,0.0596548,0.0117179,23.4,11.85,83.1,-0.756826,0.678988,9.98565
15332203,-0.0543285,0.00106526,0.0245011,23.1,10.65,82.35,-0.00239502,0.492177,10.6131
15344382,0.165116,0.0479369,0.108657,22.5,11.55,82.8,-0.536484,0.0802332,9.52341
15367203,-0.231162,-0.076699,-0.0383495,22.35,12.15,83.4,-0.493374,0.195194,9.47072
15379378,0.149137,0.0426106,0.0170442,22.35,11.4,84.15,-0.0191602,0.504152,9.04201
15402251,-0.156594,0.0458064,0.0436758,22.05,11.85,84.45,-0.397573,0.940045,10.2539
15415377,0.0553937,-0.00639159,0.0713727,22.35,11.4,84.15,0.637075,-0.0251477,10.5293
15438203,-0.0649811,-0.0426106,0.0692422,21.45,10.05,83.55,0.447869,0.183219,7.3631
15450376,0.0937433,0.0884169,0.100135,21.45,10.8,85.35,-0.63468,0.530497,11.6358
15473209,0.134223,0.0980043,0.151268,23.25,11.25,84.3,-0.299377,1.00711,9.55934
15485377,-0.181095,-0.0319579,0.0607201,21.9,9.75,85.65,-0.124541,0.171244,7.01104
15508203,0.0692422,-0.0830906,0.115049,21.9,10.5,85.35,-0.835862,1.00232,11.4873
15520427,0.0894822,0.177899,0.0894822,22.95,9.3,84.6,-2.32556,1.86213,13.1854
15543203,0.535828,0.276969,0.318514,21.9,10.05,84.9,-0.399968,-0.0107776,8.13909
15555376,-0.100135,-0.0127832,0.092678,21.9,9.75,85.35,-0.435894,0.178429,8.78335
15578208,0.015979,-0.123571,0.0745685,22.5,10.05,86.4,0.869392,1.26816,8.72587
15591379,0.126766,0.11931,0.158724,22.35,9.15,85.8,-0.208367,1.47653,14.8428
15604373,0.58483,0.550742,0.307861,22.05,9.9,86.55,-0.138911,-2.31,7.86606
15627203,-0.123571,0.113983,0.0468716,22.95,10.05,87,-0.900527,0.319735,9.95931
15639410,-0.363255,-0.184291,0.0181095,22.95,8.7,86.7,1.56874,-0.690963,6.17517
15662203,0.0394148,-0.00958738,0.0553937,21.45,9,87.45,0.270637,1.39989,11.5759
15674374,-0.206661,0.136354,0.0958738,22.2,7.5,87.75,-0.673001,0.0179626,9.27912
15697207,0.237554,0.015979,0.126766,21.6,9.15,87.6,-0.548459,0.228724,9.96649
15710381,0.102265,0.052198,0.157659,23.55,8.7,87.75,0.0790356,0.767604,11.1784
15733203,0.102265,0.00532632,0.124636,21.9,8.25,87.75,1.48012,0.640668,8.95819
15745377,-0.14168,0.0117179,0.100135,22.35,8.1,87.9,0.981958,0.465831,6.75477
15768220,-0.284426,-0.131028,0.0138484,23.1,7.65,88.65,0.320933,0.171244,11.6382
15781374,0.189617,0.133158,0.122505,23.85,8.1,89.7,-1.825,0.130529,9.11386
15804203,-0.13955,0.00319579,0.0841559,23.4,8.1,87.9,0.708926,1.32804,11.255
15816374,0.262055,0.152333,0.191748,24.75,6.75,88.8,-0.0550855,0.906515,10.3521
15839209,0.126766,0.188552,0.192813,23.1,6.15,90,-1.26218,-0.065863,9.52581
15851376,0.470847,0.192813,0.225836,23.4,5.85,90,-1.90404,0.96639,12.6609
15874203,-0.183225,0.0276969,0.0415453,24,7.5,90.15,-0.747246,0.00119751,8.15825
15886382,-0.0245011,0.092678,0.0820254,22.95,5.25,89.55,-1.62861,0.537682,11.9544
15909203,-0.0617853,-0.00852211,0.0852212,22.5,5.25,89.85,-1.31247,-0.061073,10.4814
15921376,0.224771,0.0127832,0.135289,23.25,4.95,90.15,1.38432,0.712518,9.88027
15944220,0.28123,0.246076,0.113983,23.85,6.15,91.05,1.12566,1.47653,9.89703
15957376,-0.348341,0.160855,0.0117179,23.25,5.25,91.2,-1.85375,0.188009,7.06373
15980203,-0.262055,-0.204531,-0.0969391,24.45,4.05,90.75,-0.217947,0.887355,10.1916
15992373,0.076699,-0.0149137,0.0884169,21.9,4.95,90.9,-0.416733,0.731678,13.2285
16015209,0.390952,0.289752,0.221575,23.55,3.45,90.6,-0.0958008,0.24549,8.79054
16028377,0.0436758,0.193878,0.137419,24.15,2.85,91.35,-1.96152,0.564027,11.8873
16041377,0.122505,0.056459,0.092678,24.75,3.45,91.95,-0.469424,-0.185614,7.01104
16064220,-0.0127832,0.0681769,0.0585895,24.15,3.6,91.35,-1.21188,1.28972,11.7915
16077376,-0.320645,-0.00639159,-0.072438,24.75,3.75,92.25,-0.313748,-0.664618,9.28631
16100203,0.298274,0.113983,0.00319579,23.1,2.1,92.4,-2.15552,1.65376,9.60963
16112374,-0.396278,-0.0511327,-0.125701,23.4,2.85,93.45,-0.58678,1.9244,9.66711
16135209,-0.160855,-0.170442,-0.0980043,24.3,1.95,92.7,1.47294,0.128134,6.81225
16148378,-0.416518,-0.192813,-0.0980043,24.75,2.7,92.7,0.332908,1.89326,11.825
16171203,0.00639159,-0.0266316,0.0234358,23.55,0.45,94.35,-0.390388,0.168849,7.38945
16183388,-0.111853,-0.0830906,-0.00745685,23.25,0.45,92.25,-0.783171,1.34001,13.0201
16206203,0.492152,0.0735032,0.193878,24.45,1.05,93.15,0.193997,0.290995,8.66121
16218378,-0.268447,-0.02024,-0.076699,24.15,0.6,93.9,-0.160466,0.513732,7.69362
16241247,0.0756338,-0.0181095,0.0276969,24.15,1.05,93.9,-0.490979,0.571212,11.1137
16254376,-0.0468716,-0.0862864,-0.0170442,22.95,0.45,94.35,0.00958008,1.66095,7.5092
16277203,-0.415453,-0.236489,-0.0607201,24.9,-1.05,93.9,0.0479004,1.5867,10.4886
16289376,0.44315,-0.11931,0.0894822,23.55,-0.9,95.1,2.7423,0.968785,4.37412
16302427,-0.477238,-0.00532632,-0.0255663,23.4,-1.8,94.5,-2.26569,1.73759,14.4835
16325203,0.317449,0.02024,0.0436758,23.25,-2.7,95.4,-1.38432,-0.295785,8.14628
16337376,-0.230097,-0.136354,-0.0777643,23.1,-2.55,95.25,0.268242,2.51597,10.5796
16360234,-0.42291,-0.2024,-0.0948085,25.8,-2.4,95.4,2.10043,0.707728,5.16448
16373376,0.415453,0.210922,0.177899,24.45,-1.8,95.25,-2.46687,1.54599,16.2151
16396203,-0.142745,0.15979,0.0852212,24.9,-1.8,95.25,-3.14466,-2.00343,8.76898
16408373,0.158724,-0.0511327,-0.0117179,24.9,-4.05,94.95,-2.99377,0.125739,13.3722
16431222,0.367516,-0.0607201,0.0276969,25.35,-3,95.85,0.366438,0.463436,7.72475
16444377,-0.366451,-0.0436758,-0.144876,25.35,-3.75,95.4,1.22625,2.52076,8.31393
16467203,-0.480434,-0.175769,-0.113983,24.15,-4.8,96,1.40348,1.2011,8.47679
16479406,0.314253,0.106526,0.0575243,24,-6.45,95.4,-0.888552,0.741259,11.3724
16502204,-0.0447411,0.226901,0.0223706,25.05,-5.7,96.15,-2.65368,0.113763,11.5209
16515377,0.187487,0.0607201,0.0543285,25.8,-5.7,96.9,-1.02986,-0.183219,10.5581
16538209,0.143811,-0.02024,0.00426106,24,-6,96.15,0.486189,0.810714,7.7008
16550377,-0.36219,0.0234358,-0.118244,25.65,-6.6,96.3,0.59157,1.42863,9.21445
16573203,-0.0436758,-0.0117179,-0.00106526,25.05,-7.95,96.45,-0.189207,1.02148,10.606
16585377,-0.0969391,-0.0703075,0.00958738,24.15,-6.15,97.35,0.0263452,0.487386,8.84802
16608220,0.257794,0.0479369,0.20027,25.35,-7.5,96.9,-2.36628,1.45737,11.8993
16621374,0.00852211,-0.18216,0.00639159,25.35,-6.75,96.15,0.0574805,0.178429,5.22914
16634377,0.178964,-0.168312,0.00958738,25.2,-8.1,96.6,1.7292,2.22857,14.9793
16657207,-0.331297,0.191748,0.0383495,25.2,-7.65,95.55,-0.785566,-0.544867,7.06133
16669384,0.300405,0.211988,0.072438,25.8,-9.75,96.15,-3.2716,0.473016,13.8488
16692203,-0.299339,-0.0820254,-0.0426106,26.25,-8.1,96,-0.900527,0.540077,10.3712
16704377,0.541154,0.0383495,0.0852212,24.3,-9,96.9,0.893342,1.51006,7.67685
16727220,-0.378169,0.0479369,-0.0117179,26.7,-8.4,96.3,0.143701,2.08486,10.5437
16740377,0.157659,0.0117179,0.0372843,26.7,-10.65,98.1,-0.320933,0.813109,8.08161
16763203,-0.181095,-0.0745685,-0.0234358,25.35,-10.05,96.45,0.105381,1.82141,10.594
16775374,0.0458064,0.0351537,0.0415453,24.3,-10.05,96.9,-0.711321,0.702938,9.55934
16798209,0.0213053,0.0330232,0.0181095,24.45,-12.15,96.3,-0.962798,1.41665,10.3593
16811378,-0.105461,-0.0255663,-0.0117179,25.8,-10.8,97.2,-0.735271,0.925675,9.60963
16834203,0.0575243,-0.015979,0.00745685,25.95,-10.65,96.3,-0.167651,1.75914,9.85872
16846382,0.0713727,0.0500674,0.0543285,25.35,-12.75,96.15,0.328118,1.97469,10.0192
16869203,-0.160855,-0.00532632,-0.0170442,25.65,-11.85,96.6,0.385598,1.26816,7.81576
16882378,0.0671117,-0.00213053,0.0308927,25.65,-11.4,97.35,-0.457449,1.92919,10.8526
16895670,-0.143811,-0.00426106,-0.00319579,25.35,-12,96.45,0.217947,1.48132,9.14739
16918209,0.0415453,0.0490022,0.0617853,27,-13.2,96.3,-0.280217,1.68729,9.73178
16931377,-0.0308927,0.0234358,0.0298274,24.9,-13.2,96.6,-0.780776,1.33043,9.99763
16954203,0.0394148,0.0319579,0.0458064,26.1,-12,95.4,-0.416733,1.34241,9.63598
16966381,-0.0170442,0.015979,0.0170442,25.8,-12.3,95.1,-0.296982,1.47413,10.0886
16989203,0.0330232,0.0330232,0.0479369,26.85,-13.5,95.85,-0.00958008,1.40947,9.49467
17002377,-0.0862864,0,0.0127832,25.35,-13.05,96.15,-0.419128,1.46695,9.85872
17025220,-0.00639159,0.0308927,0.036219,26.1,-13.5,97.5,-0.431104,1.41186,9.6719
17037374,0,0.015979,0.02024,27.75,-14.7,97.05,-0.524509,1.52204,9.69825
17060203,-0.0255663,0.0234358,0.00852211,25.2,-14.4,95.55,-0.376018,1.39989,9.92099
17072374,0.0436758,0.0234358,0.00852211,25.35,-14.25,96.15,-0.232317,1.42863,9.71262
17095208,-0.04048,0.0181095,-0.00532632,26.1,-14.85,95.1,-0.337698,1.27535,9.88027
17107376,0.00426106,0.0298274,0,26.4,-14.55,96.9,-0.328118,1.19392,9.83716
17130203,-0.0127832,0.0255663,0,26.1,-13.05,96.15,-0.469424,1.06219,9.89703
17142403,-0.015979,0.0223706,-0.00639159,24.75,-13.8,96.45,-0.462239,1.13404,9.67909
17165203,0.00319579,0.0106526,-0.00426106,25.95,-15.15,95.25,-0.632285,1.12207,9.83476
17177376,-0.0138484,0.0149137,-0.00852211,25.8,-14.55,95.1,-0.462239,0.95681,9.59287
17200235,-0.02024,0.00958738,-0.0170442,26.85,-14.55,96.15,-0.543669,0.990341,9.88745
17213376,-0.00426106,0.015979,-0.0149137,25.65,-14.7,95.25,-0.546064,0.88975,9.818
17236203,-0.0170442,-0.00106526,-0.0234358,25.35,-14.55,94.8,-0.361648,0.911305,9.77968
17248373,-0.0170442,0.00852211,-0.00958738,26.1,-12.3,95.85,-0.253872,0.87059,9.78207
17271222,0.00213053,0.00639159,0.00426106,27,-13.2,96.3,-0.323328,0.762814,9.78207
17284377,-0.0234358,0.0170442,0.00958738,25.8,-14.55,96.45,-0.467029,0.576002,9.9138
17297377,0.0117179,0.0191748,0.0191748,25.65,-14.7,96.3,-0.471819,0.532892,9.94973
17320235,-0.0255663,0.00532632,0.00426106,25.65,-15.15,95.55,-0.330513,0.626298,9.59766
17333376,-0.0213053,0.00532632,-0.00213053,27.15,-12.75,96.15,-0.383203,0.554447,9.86111
17356203,-0.00213053,0.00958738,0.00319579,25.65,-14.4,96.6,-0.373623,0.492177,9.77249
17369374,-0.0170442,0.0191748,0.00319579,26.85,-15.3,95.4,-0.514929,0.410746,9.88266
17393223,-0.00532632,0.00745685,0.00745685,25.95,-13.95,96.6,-0.538879,0.456251,9.73896
17406378,-0.0127832,0.00319579,0.00958738,26.7,-15.45,96.6,-0.471819,0.437091,9.818
17419376,0.00532632,0.00106526,0.00745685,25.8,-14.25,95.4,-0.364043,0.559237,9.82758
17442242,-0.00852211,0.00426106,0.00958738,25.05,-16.05,95.85,-0.340093,0.688568,9.86829
17455374,-0.00426106,0.00958738,0.00532632,26.4,-14.85,95.85,-0.325723,0.635878,9.88027
17478203,-0.0170442,0.0138484,0.00532632,25.05,-13.5,95.4,-0.387993,0.607138,9.79884
17490373,-0.0170442,0.0138484,0.00958738,25.2,-15.9,94.95,-0.450264,0.492177,9.84674
17513209,-0.0127832,0.00852211,0.00745685,25.65,-14.4,95.55,-0.402363,0.506547,9.77489
17525377,-0.00426106,0.00745685,0.00745685,26.1,-14.25,95.4,-0.383203,0.520917,9.77249
17548203,-0.0127832,0.00852211,0.00532632,25.35,-14.55,95.85,-0.383203,0.542472,9.74854
17560420,-0.00639159,0.00639159,0.0106526,25.95,-14.7,96,-0.421523,0.650248,9.87787
17583203,-0.0181095,0.00852211,0.0127832,25.95,-14.4,96.3,-0.397573,0.556842,9.74615
17595376,-0.015979,0.00958738,0.00852211,26.1,-13.05,94.8,-0.414338,0.571212,9.84674
17618205,-0.00213053,0.00745685,0.015979,25.65,-15.9,97.05,-0.438289,0.576002,9.77249
17631377,-0.0106526,0.00958738,0.00745685,25.8,-14.85,96.15,-0.354463,0.530497,9.77489
17654203,-0.0117179,0.00426106,0.00639159,25.2,-13.95,96.3,-0.407153,0.547262,9.85872
17666377,-0.015979,0.00532632,0.0127832,26.7,-13.65,97.65,-0.368833,0.525707,9.77968
17689220,-0.0213053,0.00426106,0.00532632,25.65,-15.15,96,-0.395178,0.590372,9.85872
17702374,-0.00213053,0.00958738,0.00852211,25.65,-15.45,96.3,-0.407153,0.626298,9.8659
17725203,-0.00958738,0.0127832,0.0117179,25.95,-15.9,96.6,-0.431104,0.537682,9.74615
17737374,-0.0117179,0.0149137,0.00639159,25.95,-14.7,96,-0.337698,0.592767,9.81081
17760203,-0.0138484,0.00532632,0.00532632,26.25,-13.65,97.05,-0.414338,0.643063,9.80842
17772373,-0.0138484,0.00213053,0.00532632,27,-14.4,95.55,-0.395178,0.532892,9.81321
17785377,-0.0127832,0.00745685,0.00745685,25.65,-13.65,96.3,-0.421523,0.516127,9.80602
17808220,-0.00639159,0.00639159,0.00745685,25.65,-15.15,94.5,-0.349673,0.544867,9.83716
17821377,-0.00852211,0.0138484,0.0106526,25.35,-13.5,96.45,-0.447869,0.487386,9.9114
17844203,-0.00106526,0.0117179,0.0106526,25.95,-13.65,96.3,-0.438289,0.576002,9.81081
17856374,-0.0181095,0.00426106,0.00852211,25.65,-13.65,96,-0.373623,0.537682,9.72938
17879209,-0.00958738,0.00745685,0.015979,25.35,-13.8,96.9,-0.416733,0.525707,9.89703
17891378,-0.00426106,0.00426106,0.0138484,26.7,-14.4,94.95,-0.431104,0.511337,9.78447
17914203,-0.0127832,0.00745685,0.00532632,26.25,-14.7,97.05,-0.464634,0.542472,9.90662
17926382,-0.00745685,0.00745685,0.00319579,26.25,-14.7,94.95,-0.366438,0.494572,9.78686
17949203,-0.0127832,0.00852211,0.00958738,26.1,-14.25,96.15,-0.306563,0.528102,9.80602
17961378,-0.00426106,0.00532632,0.00958738,26.7,-13.95,95.25,-0.404758,0.487386,9.79165
17984220,-0.0191748,0.0117179,0.00745685,25.95,-14.7,96,-0.385598,0.465831,9.82279
17997376,-0.00639159,0.00745685,0.00852211,27,-13.95,95.25,-0.373623,0.437091,9.84434
18020203,-0.0106526,0.0149137,0.00745685,26.25,-15.15,97.05,-0.378413,0.425116,9.80123
18032376,-0.00319579,0.00958738,0.00958738,25.65,-14.7,96,-0.320933,0.473016,9.818
18055209,-0.0106526,0.0117179,0.00852211,26.1,-13.8,95.85,-0.399968,0.338895,9.82279
18067377,0,0.0106526,0.00745685,27.15,-14.85,95.4,-0.335303,0.25028,9.78447
18090203,-0.00745685,0.0117179,0.00852211,25.95,-14.4,96,-0.445474,0.108973,9.77728
18102407,0.0106526,0.0149137,0.0127832,25.2,-13.95,96,-0.392783,0.0969983,9.99284
18125203,-0.00639159,0.0245011,0.00745685,26.85,-15.3,95.85,-0.426313,0.0107776,9.87787
18137377,0.00213053,0.0170442,0.00426106,26.1,-15.6,96.45,-0.395178,0.0730481,9.91619
18160235,-0.0149137,0.0138484,0.00319579,25.35,-15.3,94.35,-0.433499,-0.0443079,9.78926
18173377,-0.00213053,0.00958738,0,26.85,-14.85,96.15,-0.328118,0.0467029,9.89464
18196203,0.00532632,0.0149137,0.00639159,25.65,-13.95,96.6,-0.476609,-0.149689,9.90901
18208374,0.0117179,0.0106526,0.00639159,27.75,-13.95,96.3,-0.428709,-0.120948,9.81321
18231213,0.00213053,0.00426106,0.00852211,26.1,-15.6,95.85,-0.56762,-0.0922083,9.93775
18243378,0.0170442,-0.00426106,0.00213053,25.2,-15.15,95.55,-0.411943,-0.0946033,9.83716
18266203,0.00106526,0.00213053,-0.00106526,25.95,-13.65,96,-0.308958,-0.123344,9.87787
18278400,-0.00852211,-0.0490022,-0.00852211,24.9,-15.15,96.3,-0.0934058,0.00598755,9.75094
18291379,-0.0671117,-0.12144,0.0468716,26.7,-15.15,96.3,-0.208367,-0.841849,10.3641
18314203,0.036219,-0.144876,-0.0266316,25.35,-14.85,96.15,-0.0934058,0.446671,9.71262
18326377,0.015979,0.0372843,0.0106526,25.95,-15.15,96.3,-0.126936,-0.0922083,9.95931
18349203,0.015979,0.0447411,-0.0276969,27,-15.45,95.25,-0.608335,-0.0179626,10.0599
18361376,-0.0958738,-0.00639159,-0.0532632,26.4,-15.6,94.8,-0.917293,-0.645458,9.85392
18384203,0.0458064,-0.0223706,-0.0660464,27.15,-15.3,96.15,-0.464634,-0.058678,9.93775
18396377,-0.0181095,0.00532632,-0.0660464,26.1,-14.85,95.85,-0.241897,0.25028,9.61682
18419209,-0.0905475,-0.0149137,-0.0809601,26.1,-15.6,95.4,-0.280217,-0.104183,10.0168
18431376,0.04048,-0.0308927,-0.0553937,25.65,-14.7,94.2,0.0622705,0.142504,9.82758
18454203,0.00106526,0.0617853,-0.0340885,25.95,-16.2,94.2,-0.641865,-0.0371228,9.94015
18466382,-0.0553937,-0.0596548,-0.104396,27.15,-15.6,95.4,0.249082,0.00838257,9.43001
18489203,-0.076699,-0.0308927,-0.0820254,26.1,-15.6,95.85,-0.237107,0.0778381,9.05399
18501376,-0.0617853,-0.0607201,-0.128897,25.35,-18.6,94.8,-0.711321,0.374821,10.9149
18524220,0.00213053,-0.177899,-0.0617853,26.25,-16.95,94.95,0.100591,-1.09812,9.58568
18536375,-0.0340885,-0.122505,-0.122505,26.4,-17.55,94.8,-0.61552,-0.108973,10.8215
18559203,0.072438,-0.00745685,-0.107592,25.35,-19.05,96.15,-0.280217,-0.276625,10.3018
18571373,0.0617853,0.0830906,-0.056459,25.65,-18,95.25,0.512534,-0.0443079,9.43719
18594203,0.0692422,0.072438,-0.0458064,25.35,-18.6,94.35,-0.105381,0.0155676,9.67909
18606374,-0.208792,-0.0234358,-0.117179,25.05,-18.6,95.1,-1.3963,0.0467029,11.2838
18629203,0.183225,0.0948085,-0.0223706,26.25,-18.45,94.5,-1.40348,-0.300575,8.99651
18641407,-0.0447411,-0.00852211,-0.110787,25.2,-18,95.55,-1.27176,0.135319,11.4586
18664204,0.259925,0.0394148,-0.00532632,26.4,-18.3,94.8,0.229922,-0.0682581,9.56892
18676373,-0.171508,0.0266316,-0.0990696,25.65,-19.5,95.55,0.318538,-0.00598755,7.81337
18699224,-0.00639159,0.0692422,-0.04048,25.35,-19.35,94.05,-1.22146,0.214354,12.4621
18712377,-0.239684,-0.0756338,-0.12144,26.25,-20.25,95.25,-0.65863,-0.552052,7.35352
18735203,-0.175769,-0.0862864,-0.107592,24.75,-20.1,93.3,-0.783171,0.611928,11.4035
18747376,0.12144,0.0841559,0.00958738,26.25,-19.2,94.2,-1.08255,-0.204774,9.77968
18770216,-0.0735032,0.0234358,-0.0713727,27.15,-20.85,94.35,-1.72681,-0.0898132,10.6922
18782378,-0.253533,-0.0852212,-0.112918,24.9,-21,94.2,-0.713716,-0.209564,8.54385
18805203,0.243946,-0.00745685,0.00532632,25.2,-21.45,94.95,-0.364043,1.11249,14.347
18817376,-0.170442,0.100135,-0.00426106,26.1,-20.85,94.05,1.54239,-0.863405,4.50824
18840204,0.253533,0.0873517,0.0543285,25.2,-22.2,93.45,-1.51365,0.968785,13.3866
18852378,-0.152333,0.0170442,-0.00745685,27.15,-21.9,94.05,-1.17356,-0.2886,7.72236
18875203,0.00958738,-0.0276969,-0.0330232,27.3,-21.45,92.85,-1.04423,0.779579,10.3233
18887381,-0.229032,-0.12144,-0.0479369,27,-23.7,92.1,0.0862207,0.841849,9.25756
18910203,0.0127832,-0.0916127,-0.0308927,26.4,-22.65,92.7,0.888552,0.827479,7.2697
18923377,-0.14168,0.0298274,0.00639159,26.25,-23.25,93.45,0.294587,1.22745,9.78207
18946216,-0.172573,0.0319579,-0.00639159,27.15,-22.35,92.7,-1.52563,-0.698148,11.4514
18959377,0.0255663,-0.160855,-0.0532632,26.85,-22.65,93.3,0.823887,0.693358,7.09486
18972377,-0.052198,-0.00426106,0.0639159,26.1,-22.65,91.95,1.83698,0.896935,10.2515
18995203,0.0340885,0.0809601,0.0958738,26.85,-24.15,93,-1.19032,0.621508,10.9508
19007384,-0.308927,-0.132093,-0.0756338,26.4,-23.85,90.9,-1.10889,-0.058678,7.62177
19030203,0.312122,0.0213053,0.113983,26.7,-23.25,92.4,-2.31359,2.15911,13.0752
19042377,-0.124636,-0.0692422,0.076699,27.6,-24.6,91.65,0.493374,-0.214354,9.4324
19065216,-0.0266316,0.0191748,0.0500674,27,-23.7,90.75,-0.114961,-0.26465,10.4527
19078379,0.122505,0.00213053,0.0383495,28.05,-25.5,91.05,-0.131726,0.482596,9.37732
19101203,-0.40267,-0.0415453,-0.0426106,27.6,-25.35,90.6,1.78908,1.27774,5.21477
19113377,0.365386,0.166181,0.176834,27.6,-24.9,89.1,0.0790356,2.08486,11.6358
19136209,-0.541154,0.175769,-0.00426106,27.15,-24.6,91.2,-3.72426,0.0419128,9.67909
19148382,0.678573,-0.0340885,0.16192,27,-26.25,90.3,-0.479004,1.09093,11.3005
19171203,0.308927,0.126766,0.312122,27.75,-25.8,90,1.64059,1.69927,10.6179
19183377,0.548611,0.165116,0.287621,28.65,-27.45,89.85,0.61552,0.0419128,11.3197
19206203,0.0223706,0.150202,0.143811,27.3,-25.8,89.4,-1.73878,-0.911305,7.86127
19218378,0.115049,-0.157659,-0.00639159,27.15,-27.15,88.8,-0.414338,2.57824,5.38961
19241258,-0.223706,-0.132093,0.0479369,27.3,-27,88.35,3.559,1.07417,8.87197
19254379,-0.131028,-0.0575243,-0.0340885,27.9,-28.2,87.45,-0.845442,-0.0706531,12.3711
19277203,0.630637,0.124636,0.116114,28.5,-28.5,87.9,-0.0742456,1.04064,8.43128
19289378,-0.0468716,0.0692422,0.0585895,27,-28.05,89.7,1.24302,1.03345,9.17613
19313224,0.399474,0.185356,0.191748,27.15,-26.4,88.5,1.17835,-0.86101,9.61442
19326379,0.185356,0.259925,0.0500674,27.6,-27.15,88.05,-1.13763,-1.30409,9.9138
19339373,0.207727,0.0788296,0.0308927,27.75,-29.25,88.65,-1.59029,1.87889,11.5472
19362241,-0.656203,-0.28123,-0.191748,28.05,-28.5,87.9,1.50647,-1.37354,5.51654
19375378,0.350472,0.124636,0.0415453,28.5,-28.5,86.55,-1.03704,2.62853,13.959
19398203,0.534763,0.495348,0.316384,27.15,-28.95,86.7,-0.471819,0.0227527,12.8669
19410376,0.650877,0.381365,0.225836,27.75,-29.25,87.6,-0.684976,-0.999921,7.58105
19433209,-0.545415,-0.177899,-0.108657,27,-29.55,86.55,-2.15073,0.437091,13.4944
19445379,0.557133,-0.0532632,0.052198,27.15,-28.95,84.9,0.148491,0.30776,6.56796
19468203,-0.697748,-0.136354,-0.147006,27.6,-30.45,86.7,1.26936,1.04543,9.54497
19480398,0.122505,-0.00319579,0.0127832,28.2,-29.4,85.95,-1.48731,-0.135319,11.3412
19503203,-0.28123,-0.109722,-0.151268,29.7,-30.15,86.7,-1.36277,0.166454,7.1739
19515377,-0.736098,-0.317449,-0.291882,29.1,-30.3,85.5,0.934058,1.14602,8.1367
19538209,-0.04048,0.00319579,-0.0511327,28.05,-29.85,84.75,-0.807122,-0.188009,14.8236
19551376,0.920388,0.370712,0.205596,28.5,-30.6,85.2,-1.0586,0.650248,11.461
19574203,-0.172573,0.0830906,-0.0287621,27.75,-31.05,84.45,0.941243,0.719703,4.54417
19586376,0.0585895,-0.0788296,-0.0266316,27.75,-30.3,84.45,-0.0263452,1.64658,10.9293
19609216,0.336624,0.188552,0.0809601,28.05,-31.35,83.7,-1.56395,0.738864,11.7747
19622376,-0.196009,0.287621,0.0276969,28.2,-31.65,85.35,-2.31598,-0.813109,9.73178
19645203,0.730771,0.131028,0.104396,27.75,-31.05,83.1,-1.77231,0.930465,9.39648
19657376,-0.933172,-0.092678,-0.170442,28.8,-30.6,82.65,-1.62622,0.310155,13.4848
19670374,0.54435,0.0681769,0.0852212,28.95,-32.4,82.5,-0.277822,-0.587977,7.45651
19693203,-0.355798,0.036219,-0.0394148,28.05,-31.8,82.05,-2.0669,1.31367,14.4284
19706373,0.337689,0.288687,0.107592,28.2,-30.45,82.5,-3.34824,-1.22505,10.8239
19729216,0.36219,0.274838,0.1012,27.3,-31.35,80.55,-2.87163,0.140109,14.5937
19742378,0.143811,0.0607201,0.00852211,28.8,-32.1,81.6,0.962798,0.602347,5.99555
19765203,-0.456998,-0.167247,-0.134223,27.75,-31.35,80.55,0.213157,1.50048,10.6826
19777377,0.015979,0,-0.00319579,28.65,-33,81.45,-1.19272,0.319735,10.1222
19800204,0.2024,0.00319579,0.0479369,27.9,-33,80.7,0.792751,1.64658,9.34139
19813378,0.00532632,-0.0255663,0.0468716,28.5,-31.8,79.95,1.31487,1.85973,8.64923
19836203,-0.476173,-0.0894822,-0.0703075,27.9,-32.7,80.1,-0.61073,0.379611,7.16432
19849382,-0.0276969,-0.0319579,0.00106526,28.2,-33,79.65,-2.78541,1.04782,13.5734
19862378,0.0788296,-0.0266316,0.0426106,29.25,-33.75,80.4,0.457449,0.674198,9.59287
19885203,0.396278,0.165116,0.135289,27.3,-33.6,78.45,0.984353,1.08135,6.65657
19897375,-0.317449,0.072438,0.02024,29.55,-33.6,77.85,-2.1651,1.42144,13.8632
19920204,0.0980043,-0.00958738,-0.00213053,28.95,-32.4,78.6,-0.165256,-0.34129,5.12855
19932377,-0.278034,-0.136354,-0.0575243,28.65,-32.4,76.2,0.651445,2.1136,13.4321
19955203,0.291882,0.102265,0.111853,29.55,-32.55,77.4,0.845442,0.372426,8.9055
19967380,0.276969,0.236489,0.118244,28.2,-33.45,79.35,-1.03465,1.28253,9.66711
19990203,-0.432497,0.0255663,-0.0436758,27.9,-33,75.9,-0.637075,0.329315,8.43128
20002376,0.290817,0.00852211,0.0809601,29.1,-32.55,77.4,-0.313748,1.34001,13.1231
20025216,-0.482565,-0.0692422,-0.0351537,27.9,-33.45,76.65,-0.886157,-0.516127,9.07794
20037376,0.0958738,-0.204531,-0.04048,28.2,-34.2,77.25,-0.603545,0.767604,10.867
20060203,-0.0383495,0.00958738,-0.0426106,28.8,-32.85,76.8,0.153281,1.0095,7.72236
20072376,-0.224771,0.0308927,-0.0394148,29.85,-32.55,76.05,0.694556,1.59868,9.99044
20095209,-0.0319579,0.0479369,0.072438,29.7,-33.45,75.15,-0.495769,0.410746,12.9627
20108377,0.162985,0.0468716,0.0841559,28.5,-34.05,75.3,-1.03465,-0.226329,7.51639
20131203,-0.110787,-0.0532632,0.0149137,28.65,-33.75,75.15,-1.57592,1.08854,12.3352
20143381,0.18216,-0.0777643,0.0191748,28.2,-32.4,75.15,0.320933,1.27056,6.31169
20166203,-0.355798,-0.0809601,-0.0671117,28.95,-34.95,75.6,-0.287402,1.79986,10.4527
20178374,-0.206661,-0.0969391,-0.0479369,28.95,-32.7,74.1,0.165256,1.05501,8.88155
20201249,0.205596,0.0436758,0.072438,29.7,-34.2,74.1,-0.555645,0.707728,12.2226
20214384,-0.0447411,0.154463,0.052198,30.15,-33.6,74.25,-0.838257,1.13165,8.65881
20237203,0.18003,0.0532632,0.0820254,29.25,-33,74.55,-0.146096,1.1556,9.48509
20249374,-0.253533,-0.0213053,0.00426106,30,-34.5,73.5,-0.740061,1.11249,10.0479
20273224,0.461259,0.140615,0.15979,28.65,-33.45,73.5,-1.09213,1.99146,11.4586
20286378,-0.403735,-0.0426106,-0.00852211,30.6,-34.05,72.15,0.227527,0.93286,7.04457
20299376,0.1012,-0.0862864,0.052198,28.5,-33.3,73.65,0.445474,1.64179,9.42522
20322246,-0.103331,0.0798948,0.0681769,29.7,-33.45,73.5,-1.03944,1.00232,10.5509
20335377,0.137419,0.0639159,0.0830906,29.55,-33.6,73.2,-0.488584,1.43102,10.1629
20358203,-0.2024,-0.0639159,0.0191748,28.65,-33.75,72.75,0.0646655,1.25379,8.44805
20371376,0.0607201,-0.0596548,0.0511327,29.25,-33.75,72.45,-0.112566,1.96272,9.16416
20394209,-0.150202,0.00745685,0.0394148,29.25,-33,73.05,-0.332908,0.990341,10.0551
20406379,0.0948085,0.0319579,0.0639159,29.85,-34.8,73.2,-0.725691,1.07896,10.5197
20429203,0.0351537,0.0223706,0.0596548,30,-34.5,73.5,-0.270637,1.19631,9.64077
20441409,-0.0394148,0.0511327,0.052198,30.45,-33.45,72.45,-0.201182,1.32804,10.5485
20464203,0.0511327,0.0756338,0.072438,29.7,-33.45,72,-0.646655,1.11249,9.40606
20477377,0,0.0127832,0.0436758,29.25,-33.75,70.65,-0.632285,1.44539,9.61682
20490374,-0.0713727,-0.0308927,0.02024,30,-33,71.4,-0.443079,1.64179,9.66951
20513209,-0.0287621,-0.015979,0.0298274,31.05,-34.2,70.95,-0.263452,1.45737,9.1929
20535203,-0.0372843,0.0170442,0.0500674,29.55,-33.3,69.45,-0.469424,1.46934,10.297
20548377,-0.00639159,0.02024,0.0500674,30.15,-34.05,70.8,-0.522114,1.17476,9.54257
20561403,-0.0298274,0.00745685,0.0245011,30.6,-34.35,72.15,-0.682581,1.14602,10.1341
20584203,-0.036219,-0.0106526,0.092678,30.9,-34.8,70.8,-0.785566,1.11009,10.0048
20596374,0.0628506,-0.0458064,0.0351537,29.85,-34.35,69.45,-0.402363,0.729283,9.8635
20619246,-0.0543285,-0.0340885,0.0170442,30,-34.95,69.6,-0.114961,1.67771,9.75812
20632378,0.0596548,0.0479369,0.0394148,30.6,-33.6,70.5,-0.349673,1.37115,9.67669
20655203,-0.0756338,0.0340885,0.0234358,30.45,-34.2,71.4,-0.543669,1.25858,9.89703
20667374,-0.00213053,-0.00213053,0.0181095,30.45,-34.95,70.65,-0.486189,1.14362,9.68867
20690216,-0.0223706,0.00106526,0.0117179,30,-34.5,70.35,-0.390388,1.34001,9.87309
20702378,-0.0127832,0.0117179,0.0191748,30.6,-34.8,70.05,-0.359253,1.15799,9.68148
20725203,-0.00532632,0.0127832,0.0234358,30.9,-34.8,69.45,-0.526904,1.16039,9.95212
20737375,-0.0213053,0.00426106,0.02024,29.1,-33.3,69.45,-0.495769,1.08135,9.59766
20760210,-0.0149137,-0.00426106,0.0191748,31.35,-33.6,69.45,-0.435894,1.16518,9.91619
20772372,-0.015979,0.00213053,0.02024,28.95,-35.25,70.65,-0.495769,1.05501,9.88506
20795203,-0.00426106,0.0149137,0.015979,29.55,-34.05,69.75,-0.433499,0.95681,9.79165
20807377,-0.0298274,0.00745685,0.00532632,30.6,-34.35,70.8,-0.469424,0.698148,10.0168
20830203,0.0234358,0.0276969,0.015979,30.45,-34.2,68.85,-0.392783,0.568817,9.82518
20842373,-0.0266316,0.0149137,-0.00639159,30.6,-33.6,71.1,-0.447869,0.623903,9.75333
20865216,0.00426106,0.0117179,-0.00106526,29.7,-35.7,69.6,-0.426313,0.549657,9.78447
20878376,-0.0213053,0.00426106,0.00213053,30.9,-34.05,69.75,-0.325723,0.547262,9.78447
20891374,-0.0149137,0.0106526,0.00639159,28.95,-33,69.3,-0.471819,0.484991,9.83716
20914203,-0.0117179,0.00958738,0.00958738,29.85,-32.55,70.8,-0.469424,0.444276,9.89943
20927382,-0.00319579,0.00639159,0.0117179,31.35,-32.85,70.05,-0.486189,0.401166,9.74615
20950203,0.00106526,0.0117179,0.0138484,29.55,-32.85,70.05,-0.241897,0.609532,9.82518
20963376,-0.0138484,0.00213053,0.0191748,29.7,-33.45,70.95,-0.474214,0.676593,9.83476
20986216,-0.00106526,0.00745685,0.0149137,30.45,-32.7,70.65,-0.457449,0.554447,9.74375
20999378,-0.0308927,0.00213053,0.00958738,30.75,-33.45,69.6,-0.419128,0.568817,9.78926
21022203,-0.00426106,0.00958738,0.00532632,31.05,-33.75,69.9,-0.486189,0.542472,9.90182
21034376,-0.0117179,0.0117179,0.00213053,29.55,-32.85,68.7,-0.423918,0.583187,9.63358
21057209,-0.0266316,0.0117179,0.00426106,31.35,-32.85,70.8,-0.490979,0.604742,9.89943
21070379,0,0.0138484,0.00426106,30.75,-32.7,70.65,-0.481399,0.590372,9.84195
21083374,-0.015979,0.015979,0.00213053,28.95,-34.2,70.35,-0.376018,0.513732,9.71022
21106216,-0.0117179,0.0117179,0.00958738,31.5,-32.7,69.9,-0.459844,0.614323,9.85392
21119376,-0.00958738,0.0106526,0.00745685,30,-33.75,70.65,-0.464634,0.604742,9.82279
21142203,-0.015979,0.0117179,0.0117179,29.55,-32.85,69.75,-0.450264,0.580792,9.84195
21154374,-0.0127832,0.0117179,0.0117179,29.85,-34.8,69.75,-0.457449,0.580792,9.83237
21177209,-0.00639159,0.0117179,0.00745685,30.6,-32.55,69.75,-0.428709,0.602347,9.8156
21189378,-0.0138484,0.00852211,0.00426106,28.5,-33.6,70.8,-0.517324,0.556842,9.80842
21212203,-0.00426106,0.0117179,0.00852211,31.65,-34.35,68.7,-0.433499,0.540077,9.84674
21224380,-0.00532632,0.0138484,0.00958738,30.6,-34.8,70.5,-0.452659,0.616718,9.83476
21247203,-0.0106526,0.00639159,0.0127832,29.55,-33.6,70.05,-0.395178,0.698148,9.80842
21259376,-0.00958738,0.00532632,0.00745685,30.45,-34.5,70.65,-0.495769,0.576002,9.84913
21282221,-0.0106526,0.00958738,0.00745685,29.55,-35.1,70.8,-0.447869,0.587977,9.77489
21295376,-0.00958738,0.00745685,0.00532632,31.65,-35.1,70.05,-0.435894,0.595162,9.88027
21318203,-0.00532632,0.0149137,0.0117179,29.85,-34.05,70.8,-0.409548,0.501757,9.83716
21330376,-0.0138484,0.015979,0.00426106,30,-34.5,70.65,-0.373623,0.595162,9.78926
21353209,-0.00532632,0.0117179,0.0117179,30.15,-33.3,70.05,-0.447869,0.585582,9.7677
21365377,-0.00958738,0.00319579,0.00639159,31.65,-33.6,70.05,-0.414338,0.559237,9.77489
21388203,-0.00958738,0.0106526,0.0117179,30.45,-32.7,69.9,-0.450264,0.609532,9.83955
21400421,-0.00426106,0.0127832,0.0106526,30,-34.2,69.6,-0.428709,0.573607,9.88266
21423203,-0.00319579,0.0138484,0.00852211,28.65,-33,69.6,-0.431104,0.554447,9.77728
21435374,-0.00745685,0.0106526,0.00426106,29.25,-31.95,69.3,-0.428709,0.499362,9.80123
21458212,-0.00745685,0.00532632,0.00426106,30.45,-34.95,70.65,-0.416733,0.511337,9.89225
21471376,-0.0138484,0.00958738,0.00532632,30.15,-32.85,69,-0.347278,0.465831,9.80123
21494203,0.00106526,0.015979,0.00745685,29.85,-33.3,68.7,-0.383203,0.446671,9.81321
21506374,-0.0106526,0.00852211,0.00958738,30.75,-34.2,69.9,-0.399968,0.343685,9.78447
21529216,0.00639159,0.0117179,0.0191748,29.25,-34.5,70.65,-0.419128,0.319735,9.88266
21541377,0.00319579,0.015979,0.0138484,29.55,-32.55,69.45,-0.414338,0.235909,9.78207
21554670,0.0106526,0.0117179,0.0106526,30.9,-31.8,70.05,-0.378413,0.24549,9.94494
21577207,-0.0170442,0.0255663,0.0181095,30,-33,69.9,-0.529299,0.374821,9.68148
21589385,-0.00958738,-0.0117179,0.00639159,30.6,-34.05,69.75,-0.347278,0.0874182,9.96649
21612203,0.00426106,0.00213053,0.0117179,30.9,-32.85,69,-0.411943,0.231119,9.86829
21624376,-0.00319579,0.0127832,0.00532632,29.25,-34.2,69.6,-0.529299,0.30297,9.74615
21647216,0.00426106,0.015979,0.015979,30.6,-33.6,69.75,-0.481399,0.176034,9.90662
21660378,0,0.00532632,0.0170442,31.65,-35.1,70.05,-0.392783,0.25028,9.80842
21683203,0.00852211,0.0138484,0.0223706,30.75,-33.45,69.6,-0.490979,0.120948,9.87548
21695376,0.0223706,0.0149137,0.0170442,30.6,-33.6,70.5,-0.409548,0.063468,10.012
21718216,-0.0138484,0.0191748,0.00745685,30.75,-33.75,70.95,-0.452659,0.0993933,9.7198
21730374,-0.00213053,0.0138484,0.0138484,30.15,-35.55,69.45,-0.378413,0.132924,9.92099
21753203,-0.00532632,0.0191748,0.0149137,30.9,-34.35,69.75,-0.428709,-0.104183,9.80363
21765378,-0.0266316,0.00532632,-0.00319579,30.75,-32.7,69.9,-0.507744,-0.0778381,9.73178
21788203,-0.00745685,0.00639159,-0.00745685,31.5,-33.75,69.9,-0.387993,-0.0443079,9.94254
21800372,-0.0255663,0.0106526,-0.02024,29.25,-33.45,67.8,-0.340093,-0.0299377,9.88985
21823216,-0.00106526,0.0191748,-0.0170442,30.15,-32.85,69.75,-0.447869,0.0754431,9.92578
21836377,0.0138484,0.0170442,-0.00639159,31.05,-33.75,68.25,-0.387993,0.257465,10.1629
21859203,-0.0340885,0.00532632,-0.0149137,31.35,-32.55,68.7,-0.411943,-0.0371228,9.5761
21871374,0.0276969,0.0213053,-0.00426106,30.45,-33,69.3,-0.593965,0.370031,9.82279
21894209,-0.00639159,0.00852211,-0.0106526,31.35,-34.35,67.95,-0.397573,0.0874182,9.64556
21907378,0.00213053,-0.00958738,-0.0245011,31.65,-33.3,69.45,-0.488584,0.197589,10.285
21930203,-0.00426106,0.015979,-0.0340885,30.75,-34.2,69.3,-0.517324,0.475411,9.05399
21942400,0.0308927,0.0181095,-0.0213053,30,-33,68.55,-0.371228,0.631088,9.68867
21965203,-0.0703075,-0.0181095,-0.0426106,30.45,-34.2,67.8,-0.790356,-0.0490979,9.94733
21977374,0.0990696,-0.0319579,-0.0234358,30.6,-33.6,69,-0.452659,0.377216,10.2874
22000243,-0.0575243,-0.0138484,-0.0447411,30,-33,68.25,-0.57241,0.214354,9.33181
22013376,0.0798948,-0.0372843,-0.0287621,30.15,-32.85,69.75,-0.366438,0.832269,10.2707
22026372,-0.132093,-0.0500674,-0.0649811,30.75,-34.2,68.25,-0.299377,-0.0371228,9.17853
22049203,0.0937433,0.00958738,-0.0298274,30.9,-33.3,66.6,-0.55325,0.34608,9.96889
22062419,-0.13955,-0.0426106,-0.0553937,29.85,-32.85,67.35,-0.59157,-0.116158,9.82758
22085203,0.189617,-0.0191748,-0.0106526,31.05,-34.5,66.15,-0.263452,0.535287,11.073
22098372,-0.0873517,0.00213053,-0.0255663,29.55,-32.1,67.35,0.165256,-0.31734,8.17262
22121203,0.170442,0.0298274,0.00745685,29.55,-33.6,67.35,-0.146096,0.111368,10.7305
22134373,-0.151268,0.0117179,-0.0490022,31.05,-33.75,67.5,-0.519719,0.0538879,9.53299
22157203,-0.00852211,0.00639159,-0.0308927,30.15,-33.3,67.35,-0.761616,0.0347278,9.9138
22169372,-0.00426106,0.00213053,-0.0213053,30,-32.4,66.75,-1.06339,-0.00359253,10.6108
22193224,0.0138484,-0.0266316,-0.0340885,31.65,-33.6,65.25,-0.435894,-0.061073,8.50553
22206378,-0.0830906,-0.0660464,-0.0511327,29.55,-34.05,66,-0.510139,0.774789,11.2335
22219371,0.16192,0.00958738,0.0170442,31.35,-33.3,67.05,0.431104,0.338895,8.19418
22242247,-0.247141,-0.015979,-0.0426106,28.8,-32.1,66.6,-0.373623,0.35566,10.0623
22255377,0.129962,-0.0308927,0.0138484,30.6,-31.8,64.5,-0.332908,-0.657433,10.7976
22278203,0.092678,0.0649811,-0.02024,29.85,-32.55,65.55,-1.11129,-0.111368,10.1844
22290374,-0.171508,0.0415453,-0.102265,29.55,-32.1,64.95,-1.19032,1.35199,8.70671
22313209,0.0607201,0.00745685,0.0287621,30.9,-32.55,64.2,0.443079,0.444276,9.68867
22326378,-0.131028,-0.0916127,-0.0490022,29.7,-32.7,63.6,-0.258662,0.216749,10.8862
22349203,0.216249,0.0553937,0.0447411,29.85,-32.85,63.15,-1.16877,0.530497,9.78926
22361374,-0.0170442,-0.00319579,-0.0649811,29.55,-31.35,64.95,-0.711321,0.281415,8.81688
22384203,-0.449542,-0.133158,-0.153398,30.45,-33.75,63.6,-0.651445,0.238304,9.11386
22396376,0.172573,-0.0671117,-0.0351537,29.55,-33.3,64.95,-0.0598755,0.587977,12.0765
22409670,-0.0756338,0.0532632,-0.0138484,30.15,-32.55,62.85,0.246687,0.33171,8.73306
22433224,0.0458064,0.0575243,0.052198,31.8,-31.65,63.6,0.0287402,0.678988,11.0898
22446377,0.239684,0.104396,0.11931,29.7,-31.95,63.3,-0.795147,0.319735,9.31505
22469203,0.153398,0.0255663,0.128897,30.75,-32.4,63.3,-1.26218,0.453856,11.7987
22481413,0.196009,-0.0948085,0.0553937,30.9,-32.85,63.45,-0.0694556,0.437091,7.48046
22504203,-0.155529,-0.136354,-0.0276969,30.45,-31.95,62.25,0.0311353,1.06698,8.6157
22516376,-0.113983,-0.0117179,0.00319579,30.45,-30.9,62.55,-1.13763,0.844244,12.0406
22539218,0.224771,0.036219,0.0937433,28.95,-31.95,61.5,-0.871787,-0.0275427,9.9641
22552376,0.111853,0.00639159,0.0596548,31.35,-31.35,62.1,-0.5772,0.803529,11.5568
22575203,0.225836,0.0788296,0.0841559,29.55,-32.85,62.1,0.529299,0.705333,7.605
22588376,-0.172573,0.036219,0.0170442,31.5,-29.7,60.45,-0.696951,0.35087,9.90182
22601403,-0.336624,-0.151268,-0.0916127,30.15,-31.05,59.7,-0.665815,-0.276625,8.47439
22624203,-0.0596548,-0.0394148,-0.0191748,31.35,-32.1,60.75,-1.57832,0.590372,12.8333
22636373,0.120375,0.111853,0.0607201,31.35,-29.85,60.3,0.0407153,0.611928,9.93056
22659219,-0.275903,0.0500674,-0.0841559,31.5,-29.7,59.4,0.220342,-0.935255,9.9114
22672376,-0.150202,-0.0383495,-0.175769,30.6,-29.55,61.05,0.723296,1.50527,7.19306
22695203,-0.0340885,0.126766,0.00639159,31.05,-30.15,59.85,0.222737,1.74477,10.5389
22708373,0.133158,0.0809601,0.0671117,29.85,-29.55,60.75,0.332908,1.22505,9.91859
22731222,0.183225,0.100135,0.167247,30.6,-30.3,58.95,-1.04183,-0.0874182,10.3736
22744377,-0.0266316,-0.123571,-0.0308927,29.85,-29.85,59.25,0.352068,-0.676593,9.90182
22767203,-0.0340885,0.0894822,-0.00532632,31.95,-28.8,60,0.136516,0.954415,8.44086
22779382,-0.331297,0.0213053,-0.0468716,31.8,-29.4,59.1,-0.280217,0.202379,9.48988
22802203,-0.329167,-0.18003,-0.0553937,31.35,-29.25,59.25,0.541274,0.398771,9.25517
22814374,-0.609331,-0.153398,-0.108657,31.8,-30.45,57.75,-0.376018,-0.168849,9.19529
22837203,0.461259,0.126766,0.138484,31.8,-27.9,57.75,-0.874182,0.604742,12.5076
22849382,-0.957673,-0.0532632,-0.196009,32.4,-28.8,58.95,1.26936,-2.24054,6.51766
22872203,0.04048,-0.18216,-0.115049,30.45,-27.9,58.05,0.483794,1.73759,10.467
22884376,-0.722249,-0.1012,-0.134223,31.05,-27.45,57.3,-0.677791,-0.0395178,8.09838
22907220,0.699879,0.072438,0.111853,31.8,-28.95,57,-0.838257,1.65137,12.7591
22920373,-0.646616,-0.0958738,-0.100135,31.65,-28.5,57.6,0.107776,-0.226329,7.21701
22943203,0.13955,-0.0990696,-0.0330232,31.35,-29.25,56.1,-0.502954,0.597557,10.0312
22955373,-0.507066,-0.123571,-0.118244,32.7,-27.3,56.85,-0.912502,-0.319735,9.40366
22968378,0.48363,0.104396,0.0649811,31.5,-28.2,55.35,-0.943638,0.88496,12.4717
22991203,-0.367516,-0.04048,-0.0958738,32.7,-27,55.8,-0.304167,0.408351,7.37747
23003373,0.0181095,-0.117179,-0.0149137,33.45,-27.75,56.55,-0.878972,2.09923,9.35816
23026220,0.0255663,-0.221575,-0.0639159,31.8,-26.7,54.9,2.95306,0.25507,7.06612
23039376,-0.256729,0.0703075,-0.113983,31.35,-28.5,54.45,-0.402363,0.906515,10.6419
23062203,0.563525,0.320645,0.0990696,31.5,-26.1,55.65,-2.42136,0.896935,13.3746
23074373,-0.251402,0.164051,-0.0745685,32.1,-27.15,55.65,-2.01421,0.197589,8.05287
23097209,-0.34408,-0.206661,-0.0873517,33,-26.55,56.85,-1.60466,1.18673,12.7232
23110377,0.655138,-0.140615,0.108657,33.3,-25.65,55.35,1.88488,1.93158,11.7292
23133203,-0.654072,0.052198,-0.168312,31.5,-25.35,53.85,0.826282,1.6825,2.88442
23146381,0.26312,0.111853,0.0894822,31.95,-26.55,52.95,-1.66693,2.86804,11.3796
23169203,-0.322775,-0.106526,-0.0862864,33.75,-25.05,54.45,0.0359253,-0.87538,8.39296
23181377,-0.00852211,-0.103331,-0.0660464,33,-24.75,54,0.0670606,0.640668,10.9437
23204220,0.386691,0.282295,0.111853,33.6,-25.65,53.55,-1.0562,0.90891,13.3028
23217374,0.357929,0.563525,-0.0181095,33.6,-25.65,54.6,-0.617915,0.0898132,10.8143
23230373,0.0245011,0.460194,-0.0149137,33.45,-24.3,52.95,-1.41306,0.188009,8.34746
23253203,-0.217314,-0.0191748,-0.15979,32.55,-25.65,52.5,-2.6944,0.113763,11.2933
23265381,-0.234358,-0.236489,-0.142745,32.4,-22.95,53.4,1.66454,0.372426,7.46609
23288203,-0.165116,-0.056459,-0.152333,32.85,-24.6,53.55,0.246687,2.08247,10.9556
23301374,0.0873517,0.164051,0.0458064,33.3,-23.85,52.8,-0.61552,0.999921,8.99411
23324220,-0.0617853,-0.0873517,-0.0884169,34.5,-23.7,51.6,-1.6334,0.930465,11.5328
23337374,-0.0735032,-0.120375,-0.072438,32.55,-24.15,52.8,0.457449,0.906515,7.15713
23360203,0.299339,0.0596548,0.04048,33,-23.7,51.9,-0.00718506,1.88129,11.2742
23372372,-0.0905475,0.0426106,-0.02024,33.75,-23.25,52.35,0.972378,0.458646,5.98597
23395209,0.213053,0.0500674,0.0884169,33.6,-24.15,51.75,-1.03704,1.48371,13.6979
23408376,0.167247,0.169377,0.0830906,33.75,-22.5,51.6,-1.27894,0.314945,8.67797
23421675,-0.231162,0.0649811,0.00106526,34.65,-22.65,50.7,-1.81303,0.439486,12.4861
23444220,0.592287,0.185356,0.185356,35.55,-21.75,51.3,-0.807122,0.168849,9.93296
23457374,-0.572047,-0.0788296,-0.0671117,34.65,-21.6,52.5,0.998723,0.774789,9.45396
23480203,0.158724,0.0713727,0.105461,32.85,-22.35,52.2,0.220342,0.552052,9.25996
23493373,-0.16192,0.0958738,0.0692422,33.45,-22.2,51.3,-1.64538,0.765209,9.87548
23516209,0.0745685,0.0490022,0.102265,34.5,-20.7,51.6,-1.29571,0.738864,10.7521
23529377,0.0298274,0.0660464,0.125701,34.65,-20.55,51.75,-1.23104,0.499362,10.8095
23552203,0.320645,0.00426106,0.233293,34.5,-21.45,50.25,0.780776,-1.15081,9.24319
23564381,-0.115049,0.120375,0.0149137,33.75,-21,50.25,1.86333,2.09684,9.64316
23587203,0.477238,0.56459,0.32384,34.5,-20.7,51.3,-1.96631,0.849034,8.4696
23599377,-0.612527,-0.0894822,-0.04048,34.35,-20.55,50.4,-0.876577,-0.137714,10.309
23622235,0.109722,-0.427171,0.11931,33.6,-20.55,50.1,-0.716111,0.437091,10.9676
23635374,0.166181,-0.00852211,0.165116,35.4,-20.85,50.4,2.19863,1.76872,9.23601
23648374,0.265251,0.315318,0.197074,34.5,-19.95,50.25,-1.56395,0.741259,10.6299
23671203,-0.076699,0.036219,0.0756338,34.5,-19.95,50.25,0.368833,1.06938,7.58105
23683382,-0.0319579,-0.0394148,0.0532632,34.65,-18.6,50.4,-0.435894,0.777184,10.7089
23706203,0.268447,0.137419,0.158724,35.55,-19.5,49.8,-0.158071,1.09093,10.2826
23718374,-0.280165,0.0117179,0.0276969,34.8,-17.7,49.5,-0.320933,0.583187,8.472
23741203,0.133158,-0.0553937,0.072438,33.45,-19.5,49.5,-0.383203,1.42863,10.5988
23753376,-0.248207,-0.0234358,0.0149137,36.3,-18.45,49.5,-0.546064,0.849034,8.42889
23776203,0.129962,0.052198,0.0862864,35.55,-19.2,49.5,-1.23344,1.39749,11.4011
23788374,-0.0617853,0.0223706,0.0649811,34.5,-17.7,50.25,-0.900527,0.736469,8.75461
23811222,0.211988,0.0639159,0.103331,35.85,-18.75,48.15,-0.656235,1.62981,11.5544
23824376,-0.22264,-0.0117179,0.0213053,35.55,-18,49.2,0.0119751,0.925675,8.8552
23847203,0.18003,0.0351537,0.0703075,36.6,-17.4,50.25,-0.749641,1.1053,9.98805
23859398,-0.18216,-0.00852211,0.00532632,35.85,-18.45,48.75,-0.395178,1.27295,9.70543
23882204,0.00106526,0.0308927,0.036219,35.7,-16.35,50.1,-0.328118,0.959205,9.48988
23894376,0.0628506,0.0276969,0.0490022,35.4,-16.8,48.6,-0.706531,1.5867,10.5389
23917203,-0.22264,-0.0394148,-0.0287621,35.85,-16.2,49.5,-0.579595,1.21308,8.74982
23929380,0.0809601,-0.0245011,0.02024,36.6,-16.95,49.2,-0.294587,1.55078,10.0815
23952203,-0.0649811,0.00213053,0.00852211,35.7,-17.1,48,-0.335303,1.17715,9.16655
23964376,-0.0351537,-0.0127832,-0.00532632,36.15,-16.8,49.05,-1.00591,1.26816,10.2874
23987220,-0.0756338,-0.0500674,-0.0191748,34.95,-16.05,49.35,-0.795147,1.22505,10.1174
24000373,-0.0745685,-0.0553937,-0.0596548,36.6,-16.95,48.15,-0.356858,0.916095,8.41691
24023203,-0.0436758,-0.0436758,-0.0681769,35.85,-17.4,49.2,-1.01309,1.51006,11.2478
24035373,-0.0319579,-0.0436758,-0.0841559,34.8,-15.9,49.2,-0.457449,0.896935,8.44326
24058209,0.0383495,-0.00958738,-0.0809601,35.25,-16.65,47.4,-0.344883,1.53162,10.6419
24070374,-0.0298274,0.0276969,-0.0862864,34.95,-15.6,48.3,-0.265847,1.14362,9.48509
24093203,0.0617853,-0.00426106,-0.0745685,35.7,-15.3,50.1,-0.371228,0.602347,10.7616
24105381,-0.196009,-0.04048,-0.115049,36.3,-16.2,47.4,-0.201182,0.968785,9.45156
24128203,0.107592,-0.00852211,-0.0447411,33.45,-15.45,48.75,-0.0910107,1.09572,9.30307
24140374,-0.0841559,0.0149137,-0.0948085,35.55,-15.9,49.2,-0.443079,1.11009,10.0886
24163220,0.0820254,0.0106526,-0.102265,36.3,-14.4,48.45,-0.785566,0.87059,9.64795
24176374,0,-0.0436758,-0.12144,35.7,-16.35,49.35,0.0670606,1.30648,10.3928
24189374,-0.0458064,0.00639159,-0.124636,36.3,-15.45,49.2,0.225132,1.58431,9.53299
24212203,0.0426106,0.0575243,-0.0639159,34.65,-14.85,48.3,-0.138911,1.56754,10.3425
24225381,-0.0713727,0.015979,-0.0660464,34.5,-16.65,47.7,-0.464634,1.14123,9.29349
24248203,0.0458064,0.00639159,-0.0351537,34.95,-14.85,48.3,-0.613125,1.38073,10.0767
24260377,-0.0532632,-0.00852211,-0.0330232,34.95,-14.55,47.55,-0.376018,1.33043,9.54018
24283203,0.0127832,0.00319579,-0.0117179,37.2,-13.8,48,-0.253872,1.31367,9.72938
24295376,-0.0340885,0.00639159,0.00745685,35.4,-15.3,48.6,-0.0263452,1.31127,9.84195
24318203,-0.0117179,0.0117179,0.0298274,35.25,-15.9,48.75,-0.0550855,1.17955,9.68388
24331377,-0.0319579,0.00532632,0.0415453,35.25,-14.7,48.15,-0.268242,1.10291,9.8635
24354213,-0.0213053,-0.00852211,0.04048,35.25,-14.7,48.15,-0.471819,1.14362,9.75094
24367376,-0.00532632,0.015979,0.04048,35.4,-13.8,48,-0.716111,1.11249,9.83955
24390203,-0.0372843,-0.00106526,0.0255663,35.7,-14.85,48.3,-0.60115,1.14602,9.73178
24402407,-0.0181095,-0.00426106,0.0266316,34.95,-14.85,49.05,-0.445474,1.19631,9.83716
24425203,-0.0276969,-0.00639159,0.0181095,35.85,-15.9,48.45,-0.273032,1.21547,9.72699
24437376,-0.00852211,0.0106526,0.0234358,35.7,-15.6,47.55,-0.316143,1.16997,9.72699
24460246,-0.00319579,0.0127832,0.0319579,35.85,-14.7,48.75,-0.244292,1.1053,9.73657
24473377,-0.0276969,0.00639159,0.0255663,34.65,-15.3,48,-0.352068,0.949625,9.79405
24486372,-0.0234358,0.00852211,0.0149137,36.15,-15.3,48,-0.383203,0.726888,9.93536
24509203,-0.0138484,0.0170442,0.0127832,35.55,-15.45,49.2,-0.500559,0.511337,9.78686
24521412,-0.015979,0.0127832,-0.00639159,34.65,-14.85,49.05,-0.560435,0.592767,9.84674
24544204,0.00213053,0.0191748,-0.0117179,35.55,-14.4,48.15,-0.390388,0.702938,9.89464
24556373,-0.0245011,0.0170442,-0.0181095,36.15,-14.25,48,-0.349673,0.722098,9.74615
24579232,-0.00958738,0.0170442,-0.0138484,34.95,-14.85,49.35,-0.421523,0.726888,9.9114
24592374,-0.00852211,0.0181095,-0.0117179,35.7,-14.85,48.6,-0.522114,0.659828,9.77728
24615203,-0.015979,0.0149137,-0.00532632,35.7,-14.55,48.6,-0.474214,0.729283,9.93056
24627373,-0.00639159,0.00426106,-0.00426106,36.15,-14.55,49.05,-0.510139,0.738864,9.73417
24650216,-0.0138484,0.00319579,0.00213053,35.7,-14.55,48,-0.373623,0.726888,9.79884
24663377,-0.00852211,0.0106526,0.0138484,35.55,-15.9,48.15,-0.323328,0.717308,9.84195
24686203,-0.0127832,0.00426106,0.0191748,35.85,-16.65,48.75,-0.352068,0.698148,9.85153
24698375,0.00106526,0.00639159,0.0170442,35.7,-14.55,48.6,-0.481399,0.710123,9.77968
24721203,-0.0149137,0.0117179,0.0106526,34.95,-15.3,48.6,-0.390388,0.621508,9.68867
24733373,-0.0138484,0.00639159,0.00852211,34.8,-14.4,48.75,-0.349673,0.686173,9.818
24756203,-0.0127832,0.00532632,0.00852211,36.15,-15.3,48.3,-0.404758,0.710123,9.79644
24769378,-0.00745685,0.0106526,0.00639159,34.35,-14.85,47.55,-0.450264,0.717308,9.84434
24792203,-0.00852211,0.00852211,0.00745685,35.4,-14.55,48.6,-0.419128,0.688568,9.76052
24805373,-0.0181095,0.00639159,0.00106526,34.8,-14.7,48.15,-0.397573,0.669408,9.78926
24818377,-0.0106526,0.00852211,0.00639159,34.5,-14.7,49.2,-0.368833,0.681383,9.80123
24841203,-0.00106526,0.00639159,0.0138484,34.95,-14.85,47.55,-0.378413,0.626298,9.78447
24854373,-0.0127832,0.00639159,0.015979,35.7,-14.55,48,-0.371228,0.645458,9.85153
24877203,0.00852211,0.0106526,0.0213053,35.25,-12.9,48.15,-0.328118,0.667013,9.85153
24889380,-0.0245011,0.0106526,0.00958738,36.3,-14.4,48.15,-0.440684,0.702938,9.78686
24912203,0.00213053,0.0170442,0.0138484,35.25,-13.95,48.15,-0.464634,0.698148,9.91619
24925373,-0.00426106,0.0117179,0.00106526,35.25,-14.4,48.75,-0.361648,0.616718,9.71501
24948216,-0.00958738,0.0138484,0.00426106,36.6,-13.2,48.15,-0.198787,0.609532,9.82279
24961378,-0.00106526,0.0170442,0.00639159,34.8,-14.7,48.15,-0.268242,0.530497,9.78207
24984203,-0.00213053,0.0181095,0.00958738,36.15,-14.55,48.6,-0.280217,0.518522,9.88745
24996376,0.0138484,0.0245011,0.02024,34.8,-14.7,49.5,-0.318538,0.33171,9.80602
25009678,0.00213053,0.0255663,0.0181095,35.4,-13.05,48,-0.344883,0.489782,9.78447
25032203,0.0127832,0.0351537,0.015979,34.5,-15.45,48.45,-0.447869,0.281415,9.78926
25044376,-0.00106526,0.0223706,0.00958738,34.35,-14.85,48.3,-0.414338,0.310155,9.94254
25067216,0.015979,0.0245011,0.0117179,36.45,-14.55,48.3,-0.332908,0.195194,9.85392
25080376,0.00532632,0.0276969,0.036219,35.55,-14.4,47.7,-0.974773,0.348475,9.55455
25103203,0.0266316,0.015979,0.0372843,35.4,-14.25,47.55,-0.126936,0.228724,9.78926
25115376,0.0788296,0.0330232,0.0383495,36.15,-14.55,46.5,-0.766406,-0.0850232,9.93536
25138209,0.122505,0.0543285,0.0735032,35.25,-14.4,48.45,-0.225132,0.106578,10.1653
25150377,0.0617853,0.0788296,0.00426106,34.95,-14.85,48.3,-0.924478,-0.458646,9.70543
25173203,-0.0383495,0.0330232,-0.00426106,35.25,-14.7,48.75,-0.593965,0.120948,9.64795
25185381,-0.00639159,0.0117179,-0.00426106,35.25,-15.45,48.15,-0.215552,0.065863,9.8659
25208203,-0.0117179,0.0447411,0.0213053,35.7,-14.25,49.35,-0.392783,0.0131726,9.80842
25220374,0.0255663,0.04048,0.0213053,36.15,-13.8,49.65,-0.622705,-0.0490979,9.89464
25243216,-0.0106526,0.0308927,0.0234358,34.65,-13.8,47.55,-0.402363,-0.104183,9.8156
25256377,0.00213053,0.0255663,0.0266316,34.35,-13.5,48,-0.514929,-0.0874182,9.71501
25279203,0.0117179,0.0255663,0.02024,35.85,-13.2,48.15,-0.807122,0.0419128,9.86829
25291374,0.0138484,0.02024,0.0117179,36.3,-13.65,48.75,-0.524509,0.238304,9.74854
25314209,-0.00958738,0.0191748,0.00319579,34.95,-13.05,49.05,-0.651445,0.152084,9.95212
25326378,-0.0830906,-0.0138484,-0.0181095,33.9,-13.8,49.05,-0.752036,-0.0371228,9.77249
25349203,0.0596548,-0.0245011,0,36.6,-13.95,47.4,-0.651445,0.0922083,9.50425
25361407,-0.0777643,-0.036219,-0.04048,35.4,-13.5,48.3,-0.320933,0.477806,10.1317
25384203,0.0138484,0.00852211,-0.00958738,35.7,-13.5,49.05,-0.495769,0.132924,9.7222
25396376,-0.0713727,-0.0276969,-0.0426106,35.25,-13.2,49.5,-0.60594,0.0826282,9.78686
25419243,0.0138484,-0.0234358,-0.0255663,36.3,-11.85,47.4,-0.613125,0.398771,10.4862
25432375,-0.0820254,-0.02024,-0.0458064,35.85,-12.9,48.45,-0.150886,0.125739,9.37492
25455203,-0.0308927,-0.0245011,-0.04048,36.45,-12,48.3,0.0239502,0.247885,9.57371
25467376,-0.0905475,-0.00639159,-0.0553937,36.75,-12.3,48.6,-0.723296,0.334105,10.5533
25490216,-0.0447411,-0.120375,-0.0138484,35.85,-13.65,48.15,0.536484,-1.14362,8.81928
25503376,0.186421,0.015979,0.0276969,35.4,-12.75,48,0.522114,0.987946,9.66711
25516373,-0.151268,0.092678,-0.0149137,36.45,-13.8,49.35,-1.16158,-0.87538,9.20487
25539243,-0.126766,-0.135289,-0.0841559,36.3,-12.9,48.15,-0.593965,0.324525,9.71022
25552378,-0.0852212,-0.0735032,-0.056459,36.75,-12.75,47.55,-0.215552,0.487386,10.8886
25575203,0.239684,0.167247,0.072438,34.8,-11.1,47.4,-1.03225,0.0826282,10.1749
25588376,0.0458064,0.00852211,0.0127832,35.85,-11.4,48.75,-1.73639,0.508942,11.4921
25611222,-0.194943,-0.136354,-0.0830906,34.65,-12,48.3,0.258662,-0.223934,6.08895
25624379,0.276969,-0.0756338,0.0372843,35.25,-11.85,47.7,0.603545,1.30888,12.7615
25647203,-0.368581,-0.0330232,-0.0703075,37.2,-9.75,48.6,-0.0502954,-0.429906,7.44933
25659401,0.208792,0,0.0191748,36.75,-11.25,48.6,-0.524509,0.556842,10.8359
25672675,-0.0191748,0.00745685,0.0213053,35.4,-10.05,48,0.519719,0.669408,8.30914
25695203,-0.201335,-0.0276969,-0.0543285,35.85,-9.9,47.7,-0.198787,0.439486,9.76052
25707673,-0.149137,-0.0820254,-0.0511327,34.35,-10.5,48.3,-0.536484,0.398771,9.33181
25730216,-0.0820254,-0.107592,-0.0287621,35.55,-11.85,48.15,-0.347278,0.702938,10.0623
25742376,0.143811,0.0426106,0.0777643,37.05,-9.15,48.45,0.529299,0.849034,10.0383
25765203,0.232228,0.122505,0.111853,36.3,-10.35,49.8,0.730481,0.456251,8.43128
25777376,0.0500674,0.0884169,0.0969391,36.15,-8.7,48,-0.984353,0.118553,11.1161
25800203,-0.350472,0,-0.0660464,35.7,-9.75,47.25,-1.31487,-0.408351,8.20136
25812377,0.401605,0.02024,0.0713727,36.3,-9.9,48.75,-1.19511,1.68969,11.9136
25835203,-0.393083,-0.0798948,-0.0191748,35.55,-8.4,49.8,1.1041,0.35087,7.91875
25857209,0.374973,-0.00745685,0.0713727,35.7,-7.5,48,-0.0550855,0.597557,10.6826
25869378,0.0660464,0.0958738,0.1012,34.8,-8.85,48.75,-0.184417,1.59389,12.1507
25882374,-0.132093,0.111853,0.0575243,36.45,-10.05,48.3,-0.146096,-1.2993,5.06149
25905232,0.265251,0.147006,0.112918,35.85,-9.15,48.45,-1.73878,0.657433,14.6655
25918377,0.3036,0.223706,0.174703,35.55,-8.4,48.75,-2.56267,0.693358,10.5676
25941203,0.0308927,0.0330232,0.125701,35.7,-8.25,50.1,-0.955613,-0.192799,10.3665
25953374,-0.256729,-0.20027,-0.0873517,36.3,-7.35,49.2,-0.895737,1.78788,7.78702
25976203,-0.237554,-0.294013,-0.0479369,36.45,-7.5,50.7,0.0263452,1.52922,6.92482
25988376,0.100135,-0.0426106,0.0330232,35.7,-8.25,49.65,1.09931,2.9351,13.741
26011203,0.485761,0.441019,0.290817,36.3,-7.35,51.3,0.914898,-0.370031,8.66599
26023417,0.370712,0.36219,0.178964,36.6,-7.35,49.5,-3.04646,-0.0874182,13.1327
26046203,-0.334493,-0.0884169,-0.0713727,37.05,-6.6,49.5,-1.41067,0.0682581,8.80491
26058376,0.666856,0.0490022,0.160855,33.9,-7.2,49.65,-0.347278,1.80944,14.7446
26081249,-0.0532632,-0.00745685,-0.00852211,36.15,-6.75,50.4,2.23216,0.872985,3.09757
26094376,-0.372843,-0.11931,-0.0873517,35.55,-7.35,49.5,1.21188,2.46088,9.61682
26117203,-0.50387,-0.14168,-0.0745685,36.15,-6.45,49.65,-0.59636,0.192799,7.63614
26129376,0.0511327,-0.0553937,-0.00852211,37.8,-5.25,50.1,-1.21188,0.413141,11.5328
26153220,0.318514,0.0617853,0.110787,37.2,-5.7,50.1,-0.874182,1.52922,11.1951
26166377,-0.197074,-0.0628506,-0.0383495,37.2,-6.45,50.1,1.74597,0.999921,4.73337
26179376,-0.120375,-0.144876,-0.0319579,37.2,-6,51.15,1.03225,2.11121,11.5903
26202233,0.184291,0.0649811,0.0841559,36.45,-6.45,51.45,0.129331,0.975971,8.5654
26215378,-0.150202,0.0340885,-0.0138484,36.75,-6.45,51.45,-1.45617,0.774789,10.5317
26238203,0.311057,0.036219,0.0340885,35.55,-5.1,50.55,-0.838257,0.118553,9.65514
26251376,0.0948085,0.072438,0.0245011,36.3,-4.05,50.85,-0.684976,1.45018,9.15218
26274209,-0.573112,0.0596548,-0.0830906,37.05,-4.8,50.85,-1.12326,-0.228724,9.74854
26287379,0.428236,0.232228,0.0703075,38.1,-4.35,50.55,-3.1279,0.734074,15.6738
26310203,0.0340885,0.150202,0.0319579,37.2,-6.45,50.4,-1.65975,-0.607138,7.82774
26322404,0.431432,-0.0479369,0.0372843,37.05,-5.1,51.6,0.0191602,2.23096,10.479
26345203,-0.539024,-0.108657,-0.0777643,35.85,-4.8,50.55,1.0562,0.559237,6.70687
26357377,0.190682,0.0276969,0.015979,37.05,-5.1,51.3,-0.328118,1.10291,10.3593
26380243,-0.56459,-0.224771,-0.0276969,37.5,-3.45,52.2,-0.536484,-0.930465,10.0599
26393377,0.286556,-0.158724,-0.0170442,36.45,-5.25,51.15,1.7292,0.508942,7.8948
26406371,0.365386,0.22051,0.204531,37.35,-4.8,51.6,0.387993,2.70517,10.5988
26429203,-0.968325,-0.268447,-0.18216,37.8,-4.5,51.45,2.75427,0.499362,3.95499
26441411,0.494283,-0.0916127,0.138484,36.6,-4.8,51.9,-0.471819,1.66574,13.3243
26464203,-0.583765,-0.0788296,-0.0788296,36.15,-3.45,51.75,0.313748,0.542472,4.92258
26476372,-0.036219,-0.0735032,-0.015979,37.65,-4.05,53.7,-1.28373,1.07417,12.1436
26499243,0.0127832,-0.0447411,0.0447411,37.35,-4.05,52.95,-0.414338,0.286205,10.8167
26512376,0.256729,0.140615,0.133158,36.75,-4.5,53.25,-0.0934058,0.391586,9.79884
26535203,-0.0447411,0.166181,0.110787,36.45,-3.45,52.2,-2.28006,1.52922,12.7878
26547374,0.103331,-0.0937433,0.0607201,38.4,-3.3,52.65,-0.546064,0.113763,7.80139
26570216,0.349407,0.142745,0.166181,36.15,-3,53.85,-0.320933,2.05852,9.38211
26583377,-0.449542,-0.00958738,-0.00958738,37.8,-2.4,54.6,-1.09452,0.571212,10.1533
26606203,0.256729,-0.0809601,0.0596548,36.75,-3.45,52.8,-0.122146,0.9137,9.35576
26618375,-0.125701,0.056459,0.00532632,37.5,-4.2,54.6,-0.512534,0.549657,9.40366
26641203,-0.231162,-0.00426106,-0.0447411,37.8,-4.2,54.3,-1.55437,1.7783,12.4861
26653376,0.328101,-0.0671117,0.0820254,37.05,-5.1,54,-0.165256,0.88496,9.23601
26676203,-0.266316,-0.0532632,-0.0660464,37.5,-4.5,53.85,1.57592,1.60586,6.05303
26688381,0.358994,0.0649811,0.124636,35.7,-3.75,54.9,0.344883,2.36508,11.2766
26711203,-0.458064,-0.0234358,-0.0543285,38.55,-3.75,53.55,-1.12805,0.439486,7.40142
26723376,-0.0756338,-0.131028,-0.0191748,37.8,-4.5,54.3,-1.45617,0.398771,12.6345
26746216,0.269512,-0.0703075,0.0649811,38.7,-4.05,54.45,0.541274,0.781974,7.48525
26758376,-0.350472,0.0319579,-0.0553937,36.75,-3,54.9,-0.555645,1.4909,10.5413
26781203,0.449542,0.124636,0.150202,38.25,-4.2,53.85,-0.670605,1.19871,12.7184
26793376,0.227967,0.214118,0.147006,38.55,-4.2,54.3,-0.0526904,-0.188009,6.38354
26816203,0.0862864,0.0894822,0.0703075,37.65,-4.05,54.45,-1.07057,1.43581,13.1399
26828374,-0.143811,0.00639159,-0.00213053,38.4,-3.3,56.1,-0.773591,-0.00598755,8.22292
26851203,-0.0713727,-0.0894822,-0.0511327,37.35,-2.85,55.05,0.268242,0.513732,9.07075
26863413,-0.28123,0.0458064,-0.0607201,37.8,-4.2,54.6,-0.177231,2.66925,12.2609
26876679,0.3036,0.199204,0.143811,37.2,-4.5,54.6,-0.483794,0.195194,7.16911
26899203,-0.0660464,0.157659,0.0830906,38.1,-3.6,55.5,-2.47885,1.64897,12.9794
26912376,0.232228,0.0266316,0.076699,38.7,-2.85,55.05,-0.64905,0.520917,9.65514
26935209,-0.0820254,-0.00106526,0.0479369,39.45,-4.8,55.8,0.217947,0.207169,8.87436
26948379,-0.0756338,-0.116114,-0.0340885,38.25,-3.75,57,-0.744851,1.86692,8.67797
26971203,-0.268447,-0.0990696,-0.0660464,40.05,-3.45,56.25,-0.0119751,1.5867,5.30339
26983381,-0.397344,-0.124636,-0.174703,39.15,-3.3,55.5,-0.962798,2.51118,12.4813
27006203,-0.0628506,-0.0426106,0.0415453,39.3,-3.75,55.95,-1.1544,-0.0203577,10.9125
27018377,0.192813,0.0234358,0.0447411,39.45,-4.05,56.85,-0.450264,0.808319,10.5437
27041257,0.262055,0.0894822,0.138484,38.55,-3,55.65,0.447869,1.59628,10.8694
27054384,-0.128897,0.04048,0.0117179,38.7,-3.3,55.5,0.689766,0.532892,4.98006
27077203,0.00106526,0.00639159,0.0298274,39.45,-3.6,55.5,-1.1999,1.7807,13.753
27090377,0.226901,0.123571,0.0830906,39.15,-2.85,56.1,-1.17595,0.391586,7.89001
27103380,-0.233293,0.0447411,-0.0223706,37.5,-3.45,55.35,-1.07776,1.13644,10.9987
27126203,0.143811,-0.00213053,0.0223706,38.4,-4.05,56.85,-0.0239502,0.434696,9.03243
27138374,-0.00639159,0.0234358,0.00852211,38.1,-2.85,55.8,-0.787961,1.24182,11.8777
27161259,-0.0170442,-0.00745685,0.00213053,39.15,-4.05,55.8,-0.249082,0.959205,8.38099
27174384,0.241815,0.0372843,0.0756338,37.65,-2.85,56.1,-0.196392,1.75435,10.3186
27197203,-0.22264,-0.0298274,-0.02024,38.55,-4.2,56.7,0.0263452,1.45497,8.47679
27209374,-0.0713727,-0.056459,0,38.4,-3.6,57.6,-0.124541,1.07417,9.26235
27233220,-0.0735032,0.0255663,0.00958738,39.15,-3.6,57.15,-0.905317,1.26577,11.2814
27246378,0.190682,0.0852212,0.0649811,38.7,-3.6,56.85,-0.859812,1.04543,9.65514
27269203,-0.186421,-0.00106526,-0.0372843,39.3,-4.2,57,-0.205972,1.22266,9.36055
27281374,0.232228,0.0383495,0.0468716,37.8,-3,57.75,-0.790356,1.42384,10.3641
27304203,-0.154463,-0.0245011,-0.0234358,38.55,-3,57,-0.488584,1.17955,8.58456
27316376,0.0617853,0.0106526,0.0117179,40.05,-3.45,57.3,-0.833467,1.16997,10.8455
27339239,-0.0884169,-0.00958738,-0.00426106,41.1,-3,58.05,-0.342488,1.06219,10.0719
27352377,0.0245011,0.0479369,0.0170442,39,-4.5,57,-0.354463,1.80465,9.21924
27365373,-0.0426106,0.0308927,-0.04048,38.7,-2.85,57.6,0.0335303,1.21308,11.2071
27388203,0.153398,0.158724,0.0617853,38.55,-3,57.3,-1.06578,1.02148,8.34746
27400411,-0.125701,-0.0106526,-0.052198,38.4,-4.8,57.15,-0.725691,1.45258,10.9796
27423203,0.0703075,-0.0255663,-0.0127832,39.15,-5.1,58.2,-0.0598755,1.00471,9.5785
27435372,-0.0553937,0.0170442,-0.0415453,40.5,-3.3,55.8,-0.392783,1.69448,10.1437
27458212,-0.0276969,0.036219,-0.0319579,39.6,-4.5,56.7,-0.704136,1.52443,9.70064
27471385,0.0340885,0.0223706,-0.0415453,39.9,-4.35,55.05,-0.677791,1.5388,9.40127
27494203,-0.0607201,0.02024,-0.0596548,39.45,-5.1,56.85,-0.977168,1.48611,9.45156
27506376,0.0415453,-0.0340885,-0.052198,39.45,-4.05,57.9,0.337698,1.24661,10.0192
27529216,-0.0255663,0.0372843,-0.0383495,40.35,-3.75,57.3,-0.00239502,1.17236,9.21685
27542378,0.036219,0.0553937,-0.0117179,38.7,-3.3,58.2,-0.716111,1.43581,10.0048
27565203,0.0170442,0.00958738,-0.00426106,39.6,-4.5,57,-0.61552,1.04543,9.89943
27577379,0.036219,-0.015979,-0.00852211,39.9,-4.05,56.55,-0.476609,1.2514,10.0695
27600203,0.00213053,0.00958738,-0.015979,39.3,-3.75,57,-0.361648,1.31367,9.66951
27612379,-0.0127832,0.0138484,-0.0170442,38.7,-2.85,57.15,-0.474214,1.34001,9.74615
27635203,-0.0340885,0.00639159,-0.0266316,40.05,-4.2,58.05,-0.390388,1.21787,9.78447
27647381,-0.00958738,0.0117179,-0.0234358,38.55,-3.45,57.75,-0.464634,1.12207,9.87069
27670203,0.00532632,0.015979,-0.0181095,39.15,-3.3,58.2,-0.519719,1.10291,9.74854
27683377,-0.00532632,0,-0.0266316,39.45,-3.6,56.55,-0.589175,1.1077,9.78447
27706216,0.0117179,0,-0.0298274,39.3,-3.45,57,-0.459844,1.16518,9.8156
27719377,0.00532632,0.00426106,-0.0181095,39.6,-4.2,57.75,-0.457449,1.19871,9.74854
27732373,0.00639159,0.0127832,0.00958738,39,-4.2,57.3,-0.352068,0.849034,10.0455
27755203,-0.0127832,-0.00319579,-0.0138484,40.35,-4.5,57.3,-0.651445,1.0119,9.74136
27767381,-0.0106526,-0.00106526,-0.00319579,39,-4.2,57.75,-0.301772,1.16039,9.78207
27790203,-0.0127832,0.0127832,0.00319579,40.05,-3.75,58.05,-0.342488,1.08614,9.70543
27803374,-0.00532632,0.0266316,0.00213053,39,-5.25,57.75,-0.392783,1.06938,9.80602
27826216,-0.00532632,0.00958738,0.00426106,39,-4.95,56.25,-0.526904,0.90891,9.87787
27839377,-0.0127832,0.00639159,0.0106526,37.8,-3.75,58.05,-0.368833,1.03585,9.83955
27862203,-0.0191748,0.00852211,0.00745685,39.6,-3.45,58.05,-0.445474,1.00471,9.79165
27874374,-0.015979,0.0106526,0.0138484,39.6,-3.45,57,-0.390388,0.97118,9.80842
27897209,-0.00532632,0.0181095,0.0149137,38.7,-4.8,57.15,-0.490979,0.829874,9.77968
27909378,-0.0308927,0.0127832,0.00532632,39.15,-4.05,57.9,-0.526904,0.784369,9.84195
27932203,-0.0117179,0.0106526,0.00532632,40.2,-4.05,56.55,-0.476609,0.678988,9.78926
27944380,-0.0234358,0.00745685,0.00639159,39,-4.95,57.3,-0.426313,0.748444,9.83955
27967203,-0.00426106,0.0127832,0.00532632,37.65,-4.35,58.65,-0.500559,0.676593,9.81081
27979376,-0.00532632,0.0138484,0.00852211,40.65,-4.5,58.05,-0.486189,0.690963,9.79644
28002233,-0.00106526,0.0181095,0.0138484,39.15,-4.8,56.1,-0.500559,0.678988,9.71022
28015376,-0.00639159,0.0127832,0.00532632,39.15,-3.3,56.55,-0.505349,0.734074,9.84674
28028376,-0.00852211,0.00745685,0.00426106,39.6,-4.5,57,-0.498164,0.726888,9.82039
28051203,0.00426106,0.0138484,0.00852211,39.6,-3.45,57.75,-0.55804,0.758024,9.78926
28063389,-0.00745685,0.00852211,0.00319579,39.6,-4.2,57.75,-0.459844,0.741259,9.78686
28086203,0.00426106,0.00745685,0.00958738,38.25,-4.5,57.75,-0.450264,0.781974,9.85392
28098376,-0.00639159,0.0106526,0.00745685,39.9,-5.1,57.15,-0.371228,0.844244,9.74136
28121257,-0.00852211,0.0106526,0.00852211,39.15,-3.3,57.9,-0.500559,0.717308,9.83716
28134385,-0.00106526,0.0117179,0.00958738,38.4,-5.1,57.15,-0.502954,0.779579,9.82039
28157203,-0.0138484,0.00532632,0.00532632,40.2,-3.6,56.85,-0.514929,0.722098,9.81321
28170376,0.00426106,0.00852211,0.00639159,39.9,-3.3,57.15,-0.471819,0.762814,9.8156
28193209,-0.015979,0.0106526,0.00213053,39,-3.45,58.05,-0.443079,0.693358,9.73417
28206379,0.00639159,0.00852211,0.00532632,39.3,-4.5,57,-0.471819,0.695753,9.83955
28229203,-0.00319579,0.00852211,0.00426106,39.45,-4.35,58.95,-0.479004,0.678988,9.82997
28241422,0.00106526,0.00532632,0.00106526,38.7,-4.35,56.85,-0.402363,0.671803,9.80842
28264203,-0.00426106,0.015979,0.00532632,39.6,-4.95,57.3,-0.488584,0.621508,9.83955
28277377,0.0106526,0.00745685,0.00426106,39,-3.45,58.05,-0.500559,0.525707,9.8156
28290374,0.0149137,0.00745685,0.00426106,40.5,-3.6,57.15,-0.450264,0.477806,9.82758
28313209,0.0138484,0.00639159,0.00745685,40.2,-3.3,56.55,-0.435894,0.422721,9.83476
28326377,0.00319579,0.00532632,0.00639159,39.6,-2.7,57.3,-0.452659,0.444276,9.85392
28349203,0.00532632,-0.00106526,0.00852211,40.05,-4.5,57.3,-0.455054,0.449066,9.87787
28361419,0.00106526,0.00958738,-0.00426106,40.2,-3.6,57.6,-0.421523,0.324525,9.77968
28384203,0.0117179,0.015979,-0.00639159,39.9,-5.1,57.9,-0.498164,0.34608,10.0096
28396374,0.00852211,0.00106526,-0.0213053,39.6,-4.95,57.75,-0.356858,0.221539,9.72699
28419237,0.00958738,0.00532632,-0.02024,39.45,-4.8,58.95,-0.335303,0.211959,9.83237
28432376,0.00958738,0.00958738,-0.0213053,39.45,-3.3,58.65,-0.438289,0.0467029,9.87548
28455203,0.0213053,0.00958738,-0.0170442,38.7,-4.05,57.6,-0.579595,0.00598755,9.94733
28467374,0.0138484,-0.00213053,-0.0308927,40.35,-4.2,57.75,-0.459844,0.00598755,9.86111
28490216,0.0234358,0.00958738,-0.0138484,39.15,-3.6,57.15,-0.368833,-0.0251477,9.86111
28502377,0.0639159,0.0138484,-0.00426106,40.2,-3.6,57.6,-0.268242,0.056283,9.94015
28525203,0.0213053,0.02024,-0.0127832,39.15,-4.35,57.9,-0.392783,0.0922083,9.84913
28537376,0.0127832,0.0138484,-0.0191748,39.9,-3.3,58.65,-0.467029,0.0969983,9.8156
28560203,0,0.00213053,-0.0255663,39.9,-3.6,58.2,-0.61073,0.0706531,9.87787
28572378,-0.0351537,-0.00106526,-0.0394148,38.7,-4.05,57.15,-0.426313,0.0299377,9.63358
28595203,-0.00745685,0.0181095,-0.0245011,40.35,-3.75,58.05,-0.536484,0.0706531,10.0383
28607380,-0.0383495,0.02024,-0.0351537,39.45,-4.8,58.65,-0.910107,-0.149689,10.0048
28630203,0.0181095,0.0127832,-0.0394148,39.3,-3.75,58.05,-0.287402,0.290995,9.43959
28643376,-0.206661,-0.0266316,-0.0905475,39.3,-4.5,57.75,0.0718506,0.108973,9.51144
28656376,0.100135,0.0245011,-0.0319579,40.5,-4.35,58.2,-0.294587,0.118553,10.5173
28679209,0.076699,0.0607201,-0.0426106,38.55,-4.2,58.8,-0.60594,0.0203577,9.78686
28692378,0.117179,-0.00106526,-0.0628506,38.7,-3.6,58.2,-0.352068,0.257465,9.34379
28715203,0.072438,-0.00852211,-0.0756338,39.45,-4.35,57.9,-0.00718506,0.590372,9.74854
28727382,0.0490022,0.036219,-0.0585895,38.55,-3.45,57.3,-0.277822,0.056283,9.46593
28750203,0.0628506,-0.0245011,-0.0713727,39.6,-4.2,59.1,-0.627495,0.576002,10.4431
28763376,0.0149137,-0.0127832,-0.0660464,40.35,-3.75,57,-0.129331,0.671803,9.3869
28786216,-0.1012,0.0479369,-0.0660464,39.6,-5.25,58.35,-0.622705,0.609532,10.5221
28799378,-0.0852212,0.0117179,-0.0671117,39.3,-3.75,56.7,-0.950823,0.0826282,9.56173
28822203,0.175769,0.00213053,-0.0106526,41.55,-4.05,56.85,-0.378413,0.777184,9.59287
28835376,-0.112918,-0.00532632,-0.0479369,38.4,-3.6,57.9,-0.162861,0.607138,9.5306
28848380,0.107592,0.0340885,-0.00639159,39.6,-4.5,57.75,-0.713716,0.475411,9.01088
28871203,-0.127832,-0.0223706,-0.0308927,39.15,-4.35,57.15,-1.40348,0.35087,12.4094
28883376,0.349407,0.04048,0.0671117,38.55,-4.5,58.8,-0.193997,0.281415,9.07554
28906216,-0.00426106,0.0468716,0.0372843,40.2,-4.35,57.9,-0.234712,0.769999,10.2898
28919376,-0.04048,0.00106526,0.00745685,40.05,-3.75,59.1,-0.301772,0.211959,7.64572
28942203,-0.0181095,-0.02024,0.015979,40.65,-3.75,58.35,-0.771196,1.14841,11.8298
28954376,0.0191748,0.0181095,0.0479369,39.3,-4.5,58.35,-0.0622705,0.985551,10.1317
28977209,-0.120375,0.00106526,0.0106526,40.65,-4.2,59.1,1.01549,0.425116,5.16208
28990377,-0.092678,-0.00319579,0.0447411,40.5,-3.3,57.9,-0.455054,1.45976,12.2657
29013203,-0.131028,0.0713727,0.0575243,39.6,-4.2,59.1,-1.60945,-0.348475,10.2587
29025381,0.349407,0.0777643,0.112918,39.6,-3.45,59.1,-1.12566,1.01429,10.1916
29048203,-0.490022,-0.144876,-0.0500674,40.95,-3.6,58.65,0.701741,0.88496,6.0171
29060374,0.1012,-0.0490022,0.0798948,41.25,-2.85,58.95,0.304167,1.62502,11.2814
29083216,-0.0703075,0.0617853,0.126766,40.05,-6,59.4,0,0.415536,9.87309
29096377,0.30147,0.123571,0.196009,39.3,-4.2,58.8,-0.543669,0.748444,9.62161
29119203,-0.288687,0.0479369,0.0607201,41.25,-4.35,57.9,-0.965193,1.5867,10.2108
29131374,-0.00213053,-0.0308927,0.167247,40.95,-4.8,58.95,-1.25739,1.16518,8.97495
29154203,0.129962,-0.0639159,0.198139,40.5,-4.8,58.2,0,0.813109,12.7735
29166376,-0.18216,0.0213053,0.118244,41.4,-5.25,58.35,1.07776,-0.116158,5.79437
29189203,-0.183225,0.226901,0.162985,40.65,-4.2,58.8,-1.79387,0.2886,14.5841
29202423,0.793622,0.42291,0.337689,41.4,-4.95,58.35,-1.19272,-0.458646,10.661
29215377,-0.0479369,0.269512,0.198139,40.2,-4.35,58.2,-2.54112,0.314945,8.64444
29238203,-0.0820254,-0.123571,0.0809601,41.25,-6.15,58.2,-1.18314,0.657433,11.188
29250374,0.354733,-0.0479369,0.175769,40.95,-4.35,57.9,-0.323328,0.705333,10.4144
29273209,-0.257794,-0.00852211,0.0681769,40.35,-4.95,58.05,0.859812,1.71364,7.42058
29286379,-0.241815,-0.133158,0.0830906,40.65,-4.95,59.85,1.93039,1.44539,9.83476
29309203,-0.279099,-0.0330232,0.0692422,41.25,-3.3,58.2,-0.946033,-0.353265,7.2218
29321421,-0.540089,-0.133158,-0.0383495,41.1,-4.5,58.8,-3.49673,0.362845,14.699
29344203,0.0671117,-0.110787,0.0617853,41.25,-5.1,59.25,0.61552,0.549657,6.74758
29356377,-0.978978,-0.351537,-0.148072,41.85,-4.5,58.8,0.205972,0.338895,8.22052
29379241,-0.297209,-0.415453,-0.170442,42.3,-4.8,58.95,1.18314,2.6932,9.71501
29392376,-0.0884169,0.102265,0.144876,41.25,-3.3,58.95,0.862207,1.72561,5.23154
29415203,-0.271642,-0.0234358,-0.00426106,40.95,-5.55,58.2,-0.196392,1.33043,12.5316
29427377,0.543285,-0.106526,0.205596,41.55,-4.05,58.65,2.29443,1.83578,6.7404
29450216,0.00639159,-0.0117179,0.142745,41.85,-4.2,58.35,-0.407153,1.45258,10.1222
29463377,-0.160855,-0.131028,0.0319579,42.15,-4.95,59.1,-2.08846,0.571212,9.46114
29476671,0.188552,-0.144876,0.0671117,42.15,-2.7,57.75,-1.98787,0.106578,13.7578
29499240,-0.188552,-0.108657,-0.092678,42.45,-4.5,58.8,1.6334,1.56036,6.92961
29512376,0.300405,0.183225,0.13955,42.75,-4.35,59.25,-0.989143,2.36269,13.3339
29535203,-0.68603,-0.015979,-0.0745685,42.3,-4.35,58.95,-1.45617,-0.772394,5.49499
29547374,0.853277,0.0905475,0.211988,42,-4.05,58.2,-0.795147,1.66574,15.5253
29570213,-0.223706,-0.0127832,0.0458064,43.05,-4.35,58.95,2.43813,0.635878,6.46258
29583378,0.370712,0.213053,0.143811,42.3,-3.6,58.2,0.222737,0.34129,8.96537
29606203,0.186421,0.183225,0.126766,43.2,-3.45,58.35,-1.90165,1.30169,13.5135
29618417,0.235423,-0.015979,0.149137,42.3,-3.3,59.7,0.282612,0.32692,9.41324
29641203,0.336624,-0.0500674,0.0426106,42.15,-3.75,58.8,1.53042,0.271835,4.3813
29654376,-0.40267,-0.0117179,-0.0681769,42.75,-3.3,58.2,-1.61903,1.637,14.0332
29677203,0.588026,0.265251,0.110787,42.3,-2.55,59.25,-0.934058,-0.0227527,6.96314
29689375,-0.436758,0.04048,-0.076699,42.45,-4.5,59.85,-3.03209,0.367636,14.1147
29712203,0.0777643,-0.198139,-0.113983,42.15,-4.2,58.05,-1.59269,0.92807,10.4431
29725376,-0.164051,-0.1012,-0.135289,43.2,-4.5,58.8,1.68849,2.23336,7.59303
29738379,-0.385626,0.0415453,-0.0777643,43.5,-3.45,58.05,1.2502,1.81423,11.5783
29761203,0.84795,0.351537,0.214118,42.75,-4.05,58.65,-1.70046,0.132924,11.0131
29773376,-0.274838,0.0948085,-0.0500674,43.05,-2.85,58.95,-1.84177,-0.0299377,8.84323
29796203,0.221575,-0.234358,-0.0777643,43.2,-3,57.75,-0.713716,0.674198,10.1988
29809382,-0.653007,-0.387756,-0.286556,43.35,-3.3,57.6,3.67396,1.12207,8.05526
29832203,1.4413,0.725445,0.366451,43.2,-3.75,59.85,-1.88249,0.89933,8.87197
29845376,-0.395213,0.251402,-0.0809601,42.45,-4.2,58.8,-4.64155,0.496967,16.3229
29868216,0.765925,-0.147006,0.0213053,43.95,-3.45,57.75,1.41067,0.0778381,5.37524
29881378,-0.423975,-0.189617,-0.167247,42.9,-2.4,57.75,1.88967,1.79746,5.35608
29904203,-0.493217,-0.109722,-0.186421,43.2,-3.75,58.05,-0.934058,1.21547,11.734
29916376,-0.166181,0.0106526,-0.248207,42,-3.3,59.25,-0.215552,1.35199,8.55103
29939209,-0.133158,0.254598,-0.0266316,43.35,-4.05,59.7,-3.89191,1.60586,10.9604
29952379,0.527306,-0.107592,0.0415453,44.85,-4.05,57.6,-0.764011,0.97118,12.2585
29965374,-0.184291,-0.0170442,-0.00426106,42.75,-3.3,58.65,0.287402,-0.063468,9.33899
29988216,0.733967,0.185356,0.0447411,44.25,-4.2,58.05,-0.136516,1.61544,8.64923
30001376,-0.3036,0.272708,-0.0127832,43.2,-4.2,57.75,-2.28964,1.34001,11.4921
30024203,-0.105461,0.214118,-0.108657,43.8,-3.3,58.2,-4.43079,-0.779579,10.6155
30036374,0.415453,-0.0788296,0.00426106,43.05,-4.05,59.25,0.943638,1.40228,9.94254
30059209,-0.238619,0.12144,-0.0287621,43.8,-4.35,57.6,0.0886157,0.88975,11.2191
30072378,0.0639159,0.0255663,-0.0553937,45,-4.2,57.3,-1.16398,1.19152,9.39408
30095203,-0.0798948,-0.0543285,-0.0372843,45,-2.7,58.35,-1.21906,0.0467029,11.1808
30107380,0.223706,0.0958738,0.00958738,43.95,-3,57.75,-2.19384,0.461041,11.267
30130203,0.164051,0.120375,0.0298274,44.1,-4.35,58.2,-0.148491,1.45976,9.79884
30142376,-0.276969,-0.0830906,-0.0458064,44.1,-2.1,58.2,1.93997,1.38312,5.61474
30165216,0.339819,0.0649811,0.0969391,44.1,-2.1,58.95,0.0359253,1.74477,15.7361
30178376,0.498544,0.421845,0.232228,45.3,-2.4,57.75,-1.22865,-0.542472,6.68531
30201203,-0.156594,0.0479369,-0.00958738,43.8,-3.3,57.15,-0.0934058,1.1556,9.29109
30214376,0.233293,-0.0830906,0.0447411,44.25,-3,57.75,0.560435,1.32804,10.3233
30227381,-0.174703,0.0894822,0.0255663,43.95,-2.7,58.8,-0.483794,1.32804,10.7904
30250203,0.319579,0.186421,0.118244,44.1,-2.1,56.85,-0.0167651,0.846639,8.07203
30263376,-0.322775,-0.102265,-0.0532632,44.7,-3,58.35,0.349673,1.61544,9.21924
30286216,0.238619,-0.0223706,0.076699,44.1,-2.85,58.2,-0.289797,1.15799,9.27912
30299378,-0.340885,-0.0213053,-0.0340885,45.3,-3.45,57.3,0.989143,0.223934,9.44677
30322203,0.446346,0.0884169,0.103331,45,-1.2,59.1,-1.76752,1.75675,11.0874
30334376,-0.545415,-0.132093,-0.0575243,43.95,-2.7,58.35,0.364043,1.3448,6.1129
30357209,0.274838,-0.00958738,0.0958738,44.4,-4.05,58.2,-0.385598,1.48371,12.7495
30369379,-0.270577,-0.0617853,-0.0628506,43.35,-1.05,58.65,-1.03225,0.983156,8.56301
30392203,-0.164051,-0.129962,-0.0585895,44.25,-2.7,57.75,-1.48252,1.23703,10.0886
30404381,0.0617853,-0.0692422,0.0276969,45.15,-2.1,58.2,-0.287402,1.637,11.5113
30427203,-0.194943,-0.00106526,0.0138484,43.05,-0.6,58.65,-0.0718506,0.408351,9.34858
30440377,0.256729,0.0617853,0.0798948,44.85,-1.35,57.9,-1.3963,1.07896,11.1185
30463216,-0.125701,0.0319579,0.0138484,44.1,-0.3,58.65,-1.08015,1.09572,9.97847
30476377,0.0607201,0.0276969,0.0287621,44.7,-1.2,58.35,0.373623,1.42384,9.39648
30489374,-0.165116,-0.0287621,0.0117179,44.25,-2.4,57.75,0.126936,1.32325,9.27912
30512203,0.0820254,0.00426106,0.0415453,43.95,-0.9,58.8,-1.32205,1.37354,10.8958
30525381,-0.0937433,-0.0213053,0.00958738,45,-1.2,58.35,-0.670605,1.41905,9.27672
30548203,0.175769,0.0276969,0.0596548,44.25,-1.65,57.75,-0.0407153,1.76872,9.71022
30560374,-0.111853,0.0436758,0.02024,43.35,-1.05,58.65,-0.56762,1.22745,10.309
30583216,0.243946,0.0617853,0.0681769,45.75,-0.9,58.35,0.311353,1.35917,9.30546
30596377,-0.115049,0.036219,0.0191748,44.7,-0.45,59.85,-0.105381,1.49808,10.6371
30619203,0.0639159,0.0330232,0.0223706,45.3,-0.45,57.75,-0.131726,1.18434,8.91268
30632374,-0.0937433,0.0191748,0.00426106,45.15,-1.35,57.6,-0.409548,1.28253,9.6719
30655209,-0.0138484,0.0149137,0.00106526,44.1,-0.6,58.2,-0.65384,1.1077,9.7701
30668378,-0.0117179,0,0.00106526,45.15,-1.05,58.95,-0.661025,1.22745,10.2036
30681376,-0.02024,0.00745685,0.0117179,43.8,-0.6,59.7,-0.502954,0.95681,9.35816
30704216,0.0223706,0.00745685,0.0138484,44.4,-0.3,57.9,-0.361648,1.28253,9.94494
30717377,-0.0553937,0,0.00106526,45.75,-0.15,58.8,0.0215552,1.19152,9.54018
30740203,0.0245011,0.0266316,0.0106526,43.35,-0.6,58.2,-0.134121,1.18913,9.82039
30753376,-0.0308927,0.0223706,0.0106526,43.95,-1.2,59.4,-0.124541,1.09812,9.77728
30776209,0.0468716,0.0308927,0.0255663,44.25,-0.45,58.8,-0.440684,1.15799,9.9138
30789379,-0.0617853,0.0117179,0.0117179,44.85,0,58.95,-0.402363,1.09333,9.71022
30812203,0.0170442,-0.00745685,0.0234358,43.8,1.05,58.2,-0.474214,1.15081,9.74375
30825376,-0.0458064,-0.00213053,0.00958738,43.5,-0.15,58.35,-0.632285,1.18913,9.69585
30838374,0.0117179,0.00639159,0.00745685,44.7,0.15,58.05,-0.548459,1.41665,10.0838
30861203,-0.0181095,0.00426106,0.00213053,43.8,-1.35,59.25,-0.102986,1.33043,9.49228
30873376,0.0191748,0.0213053,0.00532632,43.5,0.15,58.8,-0.280217,1.19392,9.84434
30896209,-0.0330232,0.0117179,-0.00213053,44.1,-0.3,58.65,-0.407153,1.21068,9.83716
30909377,0.0127832,0.0127832,0.0138484,43.35,-0.3,58.95,-0.435894,1.09093,9.84674
30932203,-0.0276969,0.00639159,0.0149137,44.4,-1.35,58.2,-0.61073,1.04543,9.82039
30944381,0.00639159,-0.00639159,0.0298274,45.15,0.6,58.95,-0.419128,1.01908,9.72938
30967203,-0.0330232,-0.00106526,0.0245011,44.85,-1.35,58.95,-0.371228,0.992736,9.87309
30979374,-0.0117179,0.00958738,0.0276969,43.8,0,58.2,-0.423918,0.949625,9.73178
31002242,-0.0117179,-0.00319579,0.0213053,43.5,-0.15,58.05,-0.352068,0.997526,10.0168
31015377,-0.0127832,0.0117179,0.0191748,43.2,-0.9,59.85,-0.227527,1.04064,9.69106
31038203,-0.0117179,0.0181095,0.0191748,44.7,0.15,58.05,-0.431104,1.01429,9.8635
31050374,-0.0138484,0.00852211,0.0106526,43.8,-0.3,57.6,-0.404758,1.04064,9.75333
31073209,-0.00745685,0.0138484,0.00213053,43.35,0.3,58.65,-0.490979,0.992736,9.88027
31086378,-0.00639159,0.0127832,0.00639159,44.25,-0.45,58.8,-0.294587,0.93765,9.82039
31099376,-0.00426106,0.015979,0.00852211,44.4,-0.3,58.65,-0.323328,0.901725,9.76052
31122228,-0.00106526,0.02024,0.00852211,43.5,0.9,58.8,-0.409548,0.892145,9.89703
31135377,-0.0149137,0.0181095,0.00213053,44.4,-0.6,58.2,-0.474214,0.825084,9.77249
31158203,-0.0191748,0.00532632,0,44.1,0.6,58.65,-0.452659,0.88496,9.92338
31170376,-0.00426106,0.0149137,0.00852211,43.5,0.15,59.1,-0.332908,0.86101,9.75094
31193209,-0.00426106,0.015979,0.00106526,45.6,0,57.6,-0.313748,0.97118,9.88506
31206379,-0.00958738,0.00745685,0.00639159,44.85,0,58.65,-0.342488,0.851429,9.69346
31229203,-0.0117179,-0.00213053,0.00745685,43.35,0,58.95,-0.380808,0.841849,9.78926
31241384,-0.015979,0.00745685,0.0127832,43.2,1.65,58.8,-0.419128,0.734074,9.78686
31264203,-0.0170442,0.00852211,0.00958738,44.4,-0.3,59.25,-0.479004,0.743654,9.8659
31276377,-0.02024,-0.00319579,0.00639159,43.95,-0.15,57.3,-0.467029,0.681383,9.77249
31299206,-0.0127832,0.00532632,0.0127832,44.7,-0.45,58.8,-0.320933,0.712518,9.83955
31312376,-0.0106526,0.00852211,0.00745685,43.5,-1.2,59.1,-0.330513,0.686173,9.87069
31335203,-0.00852211,0.00745685,0.0117179,44.1,0.3,57.9,-0.507744,0.683778,9.83716
31348377,-0.00958738,0.00745685,0.00745685,43.05,-1.05,59.25,-0.411943,0.686173,9.80123
31361430,-0.0191748,0.00852211,0.0106526,43.2,0.15,59.1,-0.390388,0.616718,9.72938
31384203,-0.00532632,0.00532632,0.00639159,44.1,0.6,59.7,-0.428709,0.698148,9.82758
31396374,-0.00639159,0.0117179,0.00852211,45.3,1.2,58.05,-0.399968,0.690963,9.818
31419230,-0.0106526,0.0106526,0.00745685,45,0.45,58.8,-0.443079,0.655038,9.80842
31432383,-0.00852211,0.00639159,0.00958738,44.7,0.9,58.8,-0.337698,0.688568,9.7677
31455203,-0.0149137,0.00532632,0.00639159,43.95,-0.15,58.35,-0.423918,0.722098,9.818
31467374,-0.0117179,0.00852211,0.0138484,43.8,0.3,58.2,-0.464634,0.722098,9.8156
31490216,-0.0181095,0.00745685,0.00532632,43.95,-0.9,58.05,-0.390388,0.693358,9.79884
31503377,-0.0138484,0.00852211,0.00852211,44.25,0.45,57.75,-0.407153,0.667013,9.85632
31526203,0.00852211,0.00852211,0.00852211,43.5,0.45,59.1,-0.332908,0.616718,9.8156
31538382,-0.0127832,0.0138484,0.0127832,44.4,-1.05,58.95,-0.349673,0.671803,9.73178
31561203,-0.00532632,0.00319579,0.0181095,43.95,-0.45,58.35,-0.344883,0.712518,9.82518
31574373,-0.02024,0.00532632,0.015979,44.7,-0.9,58.8,-0.328118,0.695753,9.77728
31597203,-0.00532632,0.0138484,0.0170442,44.4,-0.6,57.9,-0.469424,0.626298,9.88027
31609373,-0.00106526,0.0106526,0.015979,44.25,0.15,58.8,-0.450264,0.576002,9.83955
31632203,-0.00745685,0.0117179,0.015979,43.2,0.15,59.1,-0.366438,0.635878,9.82518
31644373,-0.00426106,0.00852211,0.00958738,43.8,-0.6,59.7,-0.414338,0.592767,9.85872
31667216,-0.0106526,0.00745685,0.0106526,44.1,0.3,58.65,-0.409548,0.492177,9.73178
31680376,-0.00745685,0.00958738,0.0138484,44.25,-0.15,59.1,-0.366438,0.451461,9.86111
31693373,-0.00426106,0.00958738,0.00213053,43.5,0.9,58.35,-0.450264,0.324525,9.85392
31716203,-0.00532632,0.00745685,0.0127832,43.35,-0.6,58.95,-0.440684,0.262255,9.89225
31729379,0.00319579,0.0117179,0.0138484,44.1,-0.3,58.2,-0.500559,0.214354,9.85632
31752203,-0.00213053,0.00745685,0.0138484,44.1,1.05,58.95,-0.490979,0.171244,9.82039
31765373,0.00213053,0.00958738,0.0127832,43.8,0.3,59.7,-0.457449,0.188009,9.95212
31788203,-0.0117179,0.00213053,0.0106526,45.3,0.9,58.35,-0.320933,0.128134,9.75573
31801374,-0.00426106,0.00639159,0.0181095,44.1,1.8,59.7,-0.361648,0.0706531,9.93056
31824203,0.015979,0.0170442,0.0276969,44.4,-0.3,58.95,-0.481399,0.0275427,9.95452
31836373,-0.00426106,0.00852211,0.0223706,44.4,0.3,58.95,-0.356858,0.0898132,9.8659
31859203,-0.0181095,0.0106526,0.0127832,44.1,0.3,59.25,-0.481399,0.0395178,9.90422
31872379,-0.00745685,0.00852211,0.0213053,43.2,0.9,58.8,-0.376018,0.0754431,9.85872
31885374,-0.0170442,0.0181095,0.015979,44.25,0.15,59.85,-0.411943,-0.0874182,9.66711
31908216,0.00319579,0.02024,0.0234358,45,0.15,58.8,-0.407153,0.0347278,9.93296
31921376,-0.0234358,0.0213053,0.0149137,43.95,1.65,57.3,-0.407153,-0.116158,9.74136
31944203,-0.00319579,0.0245011,0.0181095,44.25,0.9,58.35,-0.404758,-0.178429,9.6743
31956374,-0.00319579,0.0213053,0.00532632,43.95,1.2,58.8,-0.718506,-0.140109,9.95452
31979209,-0.0223706,-0.00213053,-0.00852211,43.8,0,58.2,-0.787961,-0.281415,9.45396
31991378,0.0415453,-0.02024,-0.00745685,45.3,1.2,58.35,-0.646655,0.0419128,10.673
32014203,0.0532632,0.00532632,0.0170442,45.3,0.45,58.05,-0.0622705,-0.267045,9.54976
32026380,0.0628506,0.00426106,0.00745685,44.25,0.45,58.35,0.232317,0.152084,9.7677
32049203,-0.138484,-0.00319579,-0.00532632,43.5,0.45,59.4,-0.0622705,-0.0946033,9.56173
32061376,0.0798948,0.0181095,0.0170442,45.3,2.4,59.4,-0.57241,0.468226,10.1485
32084216,-0.2024,-0.00319579,-0.00426106,44.25,1.65,58.8,-0.574805,0.0802332,8.82167
32097376,0.122505,-0.00958738,0.0213053,44.85,1.35,57.9,-0.488584,0.211959,10.9101
32120203,-0.0276969,0.0415453,0.0255663,45.3,2.4,60.15,-0.313748,0.00838257,9.5306
32132376,0.0916127,0.0628506,0.0745685,44.1,1.35,60,0.0910107,0.0898132,10.1916
32155203,-0.136354,-0.00319579,0.0500674,43.95,2.7,58.8,-1.6334,1.2035,9.84434
32167374,-0.225836,-0.131028,-0.0276969,43.5,0.45,59.85,-1.14003,0.417931,9.85872
32190203,0.0468716,-0.16192,-0.0127832,44.25,2.4,59.1,-0.155676,0.168849,7.80858
32202381,0.109722,-0.0916127,0.0149137,42.9,3.45,59.1,0.589175,1.59149,11.1424
32225203,-0.174703,0.0213053,0.0234358,43.95,1.95,59.4,-0.62031,0.367636,9.65993
32237374,0.312122,0.118244,0.142745,44.25,1.95,60.45,-1.32684,-0.180824,11.334
32260244,-0.211988,0,-0.0234358,44.7,4.2,59.85,-0.196392,-0.26465,9.624
32273378,-0.0447411,0.0607201,0.02024,43.05,2.85,59.25,-1.04183,0.753234,9.1905
32286373,-0.0511327,0.0458064,0.0500674,43.2,1.95,58.35,-0.814307,0.595162,10.7521
32309203,0.0255663,0.0138484,-0.00852211,44.4,1.8,60,-0.0287402,-0.195194,8.5654
32321417,-0.0234358,0.0383495,-0.00106526,43.05,2.55,59.25,0.0479004,0.470621,11.2382
32344203,0.14168,0.00426106,0.0596548,43.5,1.95,60.45,0.227527,0.290995,9.25517
32356374,0.307861,0.0745685,0.14168,43.05,2.55,60.3,0.464634,0.305365,9.39648
32379231,-0.383495,0.0426106,-0.0543285,44.4,2.55,60,-2.49801,-0.451461,11.3843
32392376,0.403735,0.0426106,0.0479369,43.8,3.6,61.35,-1.13045,-0.374821,9.34858
32415203,-0.0191748,0.0394148,0.0330232,43.5,3.75,59.85,-0.541274,0.631088,11.0898
32428377,0.372843,0.115049,0.0990696,43.35,4.05,60.75,0.694556,0.877775,10.6515
32451222,0.191748,0.0639159,0.102265,43.5,3.75,61.95,1.84656,1.54359,8.73785
32464378,-0.134223,0.076699,0.0873517,43.05,4.8,61.05,1.35798,0.0251477,6.48653
32487203,0.306796,0.268447,0.135289,43.95,4.2,60.15,-3.43446,1.34001,13.3387
32500416,-0.428236,-0.0170442,-0.0585895,42.75,3.3,60.75,-0.718506,-1.44779,7.32239
32513377,0.0649811,0.00745685,-0.0426106,43.05,4.05,61.8,-0.922083,1.1077,12.9315
32536203,0.0671117,0.148072,0.0916127,43.95,3.75,60.15,0.943638,2.08247,8.40973
32548374,-0.107592,-0.0692422,0.0553937,43.2,3.75,61.95,0.641865,0.688568,8.27082
32572222,-0.660464,-0.322775,-0.118244,43.2,4.2,61.5,1.34121,1.37594,6.54161
32585378,-0.0138484,-0.0894822,0.0841559,44.4,4.35,61.8,-0.661025,0.724493,10.6515
32608203,0.131028,0.0234358,0.134223,43.2,5.25,61.95,-0.141306,0.461041,11.7268
32620416,-0.187487,0.0245011,0.0372843,42.9,3.75,63,-0.673001,0.118553,8.8097
32643204,0.337689,-0.0500674,0.217314,43.95,3,61.95,0.550855,1.88608,10.1749
32655371,-0.518784,-0.0543285,0.0298274,42.9,5.7,62.55,-0.57241,-0.240699,7.83971
32678212,0.237554,-0.092678,0.0639159,43.95,5.25,62.55,0.205972,1.57712,8.46721
32691382,-0.428236,-0.171508,-0.0394148,42.9,4.2,63,-0.0455054,1.15799,10.0719
32714203,0.428236,0.108657,0.147006,42.75,5.55,63.45,0.665815,1.89326,7.88761
32726374,0.214118,0.207727,0.217314,43.35,6.6,63.45,-0.58678,1.22745,11.6358
32749216,0.0756338,-0.04048,0.102265,43.2,6,63,2.18426,0.29818,4.1921
32762376,-0.433563,-0.105461,0.0149137,43.05,5.85,63.45,-0.704136,0.34129,10.7664
32775375,0.405866,-0.00319579,0.1012,43.8,5.85,63.15,-1.13763,1.40468,9.60963
32798211,-1.21121,-0.143811,-0.196009,42.9,7.2,63,-1.84896,0.123344,10.2922
32811384,0.0852212,-0.156594,-0.0426106,42,6.9,63.45,-2.39502,0.2886,10.7473
32834203,-0.0149137,-0.0415453,0.102265,43.35,5.1,64.5,-0.0742456,2.39143,11.3197
32847377,-0.238619,0.145941,0.0330232,42,5.85,64.2,-1.16637,-0.980761,10.2347
32871216,0.494283,0.0415453,0.149137,42.75,6.15,63.45,-0.637075,1.92679,9.31505
32884377,-0.972586,-0.0937433,-0.0916127,43.2,6.75,66.15,0.376018,-0.750839,9.39169
32897372,1.12066,0.252468,0.300405,42.3,4.8,64.2,-0.833467,0.837059,11.449
32920247,-0.496413,0.189617,0.0671117,41.85,6.75,64.35,-2.57225,-0.3365,11.9711
32933377,0.405866,-0.052198,-0.00426106,42.9,7.5,65.1,0.579595,1.18194,4.32861
32956203,-0.0596548,-0.0905475,0.124636,42.75,6.6,65.55,0.723296,3.6536,14.2823
32968374,0.105461,0.0894822,0.150202,41.55,5.85,64.95,0.122146,-1.37833,5.24351
32991222,0.2024,0.0511327,0.0777643,42.75,7.65,67.05,-1.06578,0.791554,14.8907
33004378,0.334493,0.122505,0.155529,41.55,7.35,66,-0.148491,0.456251,7.32957
33027203,0.191748,0.128897,0.0617853,40.2,7.65,66.3,-0.167651,1.72322,10.0551
33039391,-0.14168,0.0223706,0.0543285,41.55,7.35,66.3,-0.728086,0.382006,8.11275
33062204,0.0298274,-0.0543285,-0.0415453,42.9,7.5,65.7,-2.97222,0.056283,13.3698
33074371,0.389887,-0.0575243,0.0276969,41.4,7.2,66.45,1.48012,1.17715,7.28886
33097203,-0.485761,-0.00532632,-0.0713727,42,8.4,67.95,-0.6251,0.36524,8.20136
33109370,-0.793622,-0.392017,-0.297209,42.45,7.5,66.75,0.0167651,0.736469,10.091
33132203,0.632767,0.138484,0.173638,41.4,7.95,68.25,-2.19144,0.901725,14.3661
33144371,-0.300405,0.0937433,-0.0628506,40.5,7.65,67.95,-1.17356,-0.214354,6.6446
33167216,0.234358,-0.0575243,-0.00639159,40.95,8.1,67.35,-1.27655,1.50287,11.0083
33180376,-0.308927,-0.18003,-0.170442,40.95,8.1,66.6,-1.17595,1.01669,8.50553
33193373,-0.271642,-0.0777643,-0.169377,40.05,6.75,67.8,0.119751,1.02866,8.20136
33216203,0.0394148,-0.0777643,-0.13955,40.35,7.95,68.25,-1.64059,2.59979,11.8993
33229379,-1.12598,-0.556068,-0.502805,42,6.6,68.7,-2.23455,-2.25012,8.32351
33252203,-0.134223,-0.401605,-0.354733,40.05,5.7,67.8,-0.60594,2.29802,11.4346
33264373,-0.154463,0.259925,-0.103331,40.2,8.1,68.4,-2.56746,0.825084,19.0388
33287216,0.939563,0.568851,0.168312,40.05,6,70.35,-1.73399,-1.89566,7.48765
33300378,0.30147,0.238619,0.0617853,40.2,5.55,70.5,-2.07648,1.27056,14.5314
33323203,-0.313188,-0.0234358,-0.0990696,42,6.15,70.8,0.217947,-0.552052,4.52022
33335376,-0.0937433,-0.0873517,-0.102265,40.65,7.2,69.6,-1.26218,1.53641,11.7053
33358209,-0.439954,-0.132093,-0.11931,40.35,6,70.35,-3.38895,0.120948,13.1543
33371379,0.560329,0.111853,0.0340885,39.45,6.6,70.8,-1.42025,0.247885,10.594
33394203,-0.0916127,0.15979,0.00213053,40.05,6.45,70.65,-1.71962,0.815504,10.3641
33406381,0.162985,0.132093,-0.0170442,40.2,7.65,70.5,-2.2585,0.805924,11.7915
33429203,-0.311057,0.0607201,-0.0841559,40.65,6,70.95,-2.41418,-0.0778381,11.0203
33441377,0.498544,0.205596,0.0990696,39.9,6.15,71.1,-3.32189,0.199984,13.5542
33464216,-0.236489,-0.072438,-0.138484,40.95,6.9,71.55,0.534089,0.403561,4.72619
33476377,-0.0287621,-0.0628506,-0.0820254,39.3,7.95,72.45,-0.0862207,2.30521,12.395
33499203,-0.266316,-0.0628506,-0.0788296,40.05,6.45,71.7,0.296982,1.04782,5.69378
33512377,-0.250337,-0.194943,-0.122505,40.35,6.75,71.7,-0.361648,1.70406,11.8202
33525380,0.461259,-0.0585895,0.106526,40.35,7.5,73.5,1.3005,0.235909,9.41324
33548203,-0.248207,0.0980043,0.015979,39.45,6.9,73.65,-0.617915,0.0898132,11.7628
33560374,0.397344,0.299339,0.109722,39.45,6.6,73.2,-4.4236,-1.49329,12.9746
33583214,-0.0287621,0.0276969,-0.110787,40.2,8.4,73.65,-1.01788,0.473016,6.1129
33595378,-0.259925,-0.0916127,-0.0788296,39,6.75,72.75,1.60706,2.20701,9.4348
33618203,-0.309992,-0.052198,-0.0916127,39.45,7.65,73.65,0.289797,-0.338895,8.35943
33630374,0.598679,0.227967,0.113983,39.45,7.35,72.9,-3.11832,1.95074,14.7949
33653220,-0.304666,0.0862864,-0.0511327,38.7,6.9,73.95,-0.996328,0.712518,6.98948
33665378,0.324906,-0.00532632,0.0191748,39.3,8.25,74.85,0.632285,1.75435,9.68388
33688203,-0.28336,0.0266316,0.0255663,39.45,7.35,73.65,-0.0742456,0.693358,9.65993
33700375,-0.0191748,0.0511327,0.00745685,39.15,7.35,74.7,-1.52084,-0.528102,10.8982
33723203,-0.129962,-0.0628506,-0.052198,38.4,7.35,76.05,-1.45617,0.655038,11.0131
33735376,0.26312,0.107592,0.0372843,39.15,8.1,73.95,-0.00239502,1.57473,7.41579
33758231,-0.102265,0.175769,0.0788296,39,7.5,74.85,-2.04535,1.95553,13.6812
33771378,0.495348,0.0351537,0.12144,38.25,6.45,76.95,-0.962798,0.585582,9.02525
33794203,-0.145941,-0.194943,-0.0575243,39.3,6.75,75.15,1.93997,2.31479,7.7008
33806376,0.0298274,0.123571,0.0745685,38.4,6.6,75,0.246687,2.1136,8.15107
33829216,0.158724,0.116114,0.111853,37.8,7.2,76.2,-1.39151,0.36045,12.6657
33842376,0.296144,-0.00852211,0.102265,39.15,6.9,75.75,-1.11847,1.12207,11.0778
33865203,-0.052198,0.0841559,0.0532632,37.35,7.35,76.35,-2.27766,0.925675,8.29716
33877376,-0.0255663,-0.0841559,-0.0543285,39.15,6.6,76.05,-0.399968,1.64897,10.9748
33900203,-0.24288,-0.0884169,-0.0415453,37.8,7.5,76.95,0.0479004,1.5867,8.89592
33912377,0.105461,0.00958738,0.00213053,37.2,6.75,76.95,0.380808,0.717308,11.2023
33935203,-0.0958738,0.0639159,-0.0245011,39,4.95,77.7,0.165256,1.57473,7.77026
33947381,0.0223706,0.116114,0.0308927,38.55,6.45,76.2,-1.1041,2.0657,11.3269
33970203,-0.0426106,-0.0213053,0.0170442,37.5,7.2,75.9,-0.929268,0.779579,8.82886
33982374,0.14168,-0.0372843,0.00852211,38.1,6.9,77.85,-0.708926,1.27056,10.3617
34005216,-0.24075,-0.0756338,-0.0735032,38.7,6.6,78.15,-0.0526904,1.18913,9.66232
34017377,0.24288,0.0937433,0.0276969,38.4,6.6,78.15,0.105381,1.38791,9.08512
34040203,-0.197074,0.0553937,-0.00745685,37.05,5.85,76.8,-0.514929,1.88847,11.1281
34052374,0.207727,0.0543285,0.0447411,37.65,6.9,78.15,-0.737666,0.722098,8.76659
34075209,-0.0330232,-0.00213053,-0.0181095,37.5,5.7,79.35,-0.910107,1.41186,10.2204
34087378,-0.0820254,-0.0213053,-0.04048,36.75,6,77.7,-0.603545,1.22745,9.88745
34110203,-0.0106526,-0.0149137,-0.0181095,37.8,6,78,0.0886157,1.7304,9.30546
34122387,-0.0234358,0.0308927,-0.00213053,37.5,6.45,78,-0.191602,1.82381,9.79165
34145203,0.0223706,0.0575243,0.0245011,37.35,6.6,79.5,-0.579595,1.55078,10.0455
34158376,0.036219,0.00639159,0.0127832,37.05,6.15,78.9,-0.502954,1.18673,9.34858
34171376,-0.0639159,-0.052198,-0.0181095,37.5,5.7,79.05,-0.210762,1.00232,10.2156
34194209,0.076699,-0.00532632,0.00639159,37.8,5.25,78.6,-0.342488,1.20829,9.7677
34207378,-0.0458064,0.04048,0.00532632,38.4,5.1,78.45,-0.395178,1.33762,9.78207
34230203,0,0.0127832,0.0127832,37.5,7.5,79.05,-0.603545,1.18673,9.95691
34242389,-0.0298274,-0.00426106,0.0223706,38.7,5.85,79.5,-0.428709,1.18194,9.80363
34265203,-0.0394148,-0.0138484,0.02024,36.75,6,78.6,-0.371228,1.18434,9.7198
34277376,-0.00426106,0.00106526,0.0394148,37.8,6,79.65,-0.519719,1.19392,9.83237
34300248,-0.02024,0,0.0223706,37.5,6,78,-0.452659,1.19392,9.68867
34313378,0.00319579,0.0106526,0.0117179,38.1,5.55,80.55,-0.498164,1.13404,9.94494
34336203,-0.00745685,0.00213053,0.00532632,37.2,6.75,80.7,-0.285007,1.30409,9.60484
34348376,-0.0149137,0.00106526,-0.00426106,36.3,4.8,78.9,-0.193997,1.12207,9.90182
34371223,0,0.0138484,-0.00745685,37.8,6.45,79.65,-0.479004,1.05501,9.818
34384379,-0.0255663,0.0138484,-0.0191748,38.4,5.1,78.9,-0.498164,1.11967,9.79644
34397372,-0.0330232,0.00319579,-0.0266316,38.1,5.85,78.45,-0.428709,1.0574,9.85872
34420248,0.0266316,0.0287621,-0.00639159,38.25,4.95,80.4,-0.579595,1.40228,9.63119
34433376,0.0276969,0.015979,0.00426106,37.8,6.45,78.6,-0.270637,1.02627,9.65274
34456203,-0.00745685,0.00852211,-0.0149137,38.55,5.25,79.65,-0.589175,0.846639,9.77249
34468374,-0.0223706,-0.00426106,-0.0223706,37.65,6.9,80.55,-0.570015,1.04543,9.79165
34492223,-0.0223706,-0.00213053,-0.0287621,37.2,5.7,79.65,-0.318538,0.935255,9.82758
34505378,-0.0127832,0.02024,-0.00958738,37.65,6.6,79.95,-0.344883,0.87059,9.80363
34528203,-0.00426106,0.0106526,-0.00426106,37.5,6.45,81.15,-0.318538,0.827479,9.74854
34540409,-0.0223706,0.00319579,-0.00745685,37.35,6.6,78.9,-0.387993,0.772394,9.81081
34563204,-0.0213053,0.00426106,0.00639159,37.65,6.6,79.95,-0.330513,0.710123,9.82758
34575372,-0.0138484,0.00745685,0.0181095,37.2,6.45,78.3,-0.352068,0.710123,9.818
34598208,-0.0170442,0.0149137,0.0117179,37.8,5.7,79.35,-0.433499,0.609532,9.80363
34611381,-0.0117179,0.00639159,0.00213053,39,5.25,80.7,-0.481399,0.566422,9.80363
34624373,-0.0127832,0.00532632,0.0117179,38.55,6.75,79.65,-0.395178,0.628693,9.84674
34647203,-0.0191748,0.00852211,0.00958738,37.2,6,79.35,-0.440684,0.664618,9.81321
34659375,-0.0213053,0.00745685,0.00958738,38.4,6.6,78.45,-0.416733,0.681383,9.89464
34682203,-0.0117179,0.00958738,0.00426106,37.35,6.15,79.2,-0.435894,0.688568,9.82997
34695373,-0.02024,0.00639159,0.00532632,37.5,5.25,79.65,-0.435894,0.647853,9.78686
34718235,-0.0106526,0.00852211,0.00639159,37.5,7.5,79.65,-0.452659,0.712518,9.84674
34731379,-0.0117179,0.00852211,0,38.25,6.45,79.05,-0.455054,0.643063,9.83955
34754203,-0.015979,0.0138484,0.00213053,37.5,6.45,80.1,-0.452659,0.667013,9.78207
34766377,-0.0287621,0.00319579,0,38.1,5.55,80.55,-0.390388,0.676593,9.75333
34789220,-0.00958738,0.00958738,0.00745685,38.1,5.85,80.25,-0.435894,0.635878,9.9114
34802374,-0.02024,0.00639159,0.00426106,37.05,6.6,79.5,-0.467029,0.616718,9.77968
34825203,-0.00852211,0.00958738,0.0170442,37.65,5.55,79.5,-0.476609,0.554447,9.85872
34837374,0,0.0127832,0.0106526,38.1,5.85,79.95,-0.392783,0.633483,9.70304
34860203,-0.0127832,0.0149137,0.00852211,37.35,7.35,78.9,-0.495769,0.621508,9.83237
34872376,-0.00532632,0.00639159,0.0149137,36.75,6,79.35,-0.359253,0.705333,9.88266
34895203,0.00106526,0.0127832,0.00639159,38.25,4.5,79.05,-0.440684,0.640668,9.82518
34907382,-0.02024,0.00532632,0.00213053,36.75,7.2,79.35,-0.409548,0.638273,9.68148
34930203,-0.00213053,0.00745685,0.0106526,38.55,7.5,80.4,-0.383203,0.576002,9.7701
34943376,-0.0138484,0.00213053,0.0106526,37.05,5.85,80.25,-0.378413,0.561632,9.69825
34956372,-0.00426106,0.0106526,0.00852211,37.65,5.85,79.95,-0.483794,0.690963,9.94494
34979209,-0.00319579,0.0127832,0.0138484,37.8,4.5,80.4,-0.385598,0.585582,9.95691
34991376,0.0106526,0.0266316,0.0191748,37.35,5.55,79.5,-0.517324,0.549657,9.83476
35014203,0.00426106,0.0127832,0.0149137,37.35,4.35,79.95,-0.452659,0.619113,9.71022
35026380,0.0117179,0.0138484,0.0213053,37.5,5.7,78.6,-0.447869,0.643063,9.83716
35049203,-0.00852211,0.00958738,0.0191748,37.05,6.6,79.95,-0.423918,0.611928,9.66232
35061376,-0.00532632,0.00639159,0.015979,36.45,5.25,79.35,-0.505349,0.568817,9.9641
35084220,0.00426106,0.00426106,0.00639159,37.2,6,78.6,-0.392783,0.324525,9.70064
35097373,0,0.00426106,0.00213053,37.8,7.2,78.3,-0.416733,0.408351,9.93296
35120203,0.04048,0.0191748,0.02024,37.35,6.6,80.25,-0.433499,0.257465,9.83237
35132373,-0.0138484,-0.00639159,0,38.4,6.15,80.55,-0.392783,0.156874,9.83237
35155209,0.0117179,0.00745685,0.00745685,38.25,5.25,79.35,-0.507744,0.262255,9.92099
35167374,-0.00532632,0.0138484,0.00852211,38.25,5.7,78.6,-0.426313,0.27423,9.81321
35190203,0.0170442,0.0170442,0.0127832,37.65,6.15,79.2,-0.373623,0.24549,9.93536
35202385,0.00319579,0.015979,0.00319579,37.35,5.1,78.15,-0.450264,0.209564,9.9114
35225203,-0.00745685,0.00745685,0.00426106,37.35,5.85,79.2,-0.433499,0.233514,9.77489
35237374,-0.0170442,0.0106526,-0.00213053,36.6,5.55,80.25,-0.356858,0.27902,9.76052
35260252,0.00319579,0.0181095,0.00213053,36.75,6,81.15,-0.280217,0.252675,9.93056
35273374,-0.00106526,0.0266316,0,37.65,5.85,81,-0.507744,0.25507,9.81321
35296203,-0.00958738,0.0138484,-0.00213053,37.8,6,80.1,-0.63468,0.441881,10.024
35309372,0.0106526,0.00319579,0.00106526,36.45,5.7,79.65,-0.342488,0.458646,9.72699
35322397,0.00639159,0.0149137,-0.00213053,37.65,5.85,80.55,-0.450264,0.384401,9.82518
35345203,0.0245011,0.015979,-0.00106526,37.65,6.15,80.25,-0.546064,0.372426,9.81321
35357377,0.00532632,-0.00958738,-0.00319579,36.6,5.1,79.95,-0.414338,0.271835,9.66472
35380253,0.02024,-0.00532632,0,37.8,6.45,80.1,-0.376018,0.228724,9.91619
35393374,0.0234358,0.00213053,0.00745685,38.1,6.9,81.6,-0.203577,0.235909,9.92578
35416203,0.0170442,0.0106526,0.0106526,37.2,6.45,81.15,-0.313748,0.190404,9.78207
35429374,0.0266316,0.0117179,0.00639159,36.75,6.75,81.45,-0.514929,0.211959,10.2994
35452220,0.015979,0.0127832,-0.00213053,37.5,6,80.7,-0.404758,0.396376,9.76291
35465376,-0.0841559,0.00213053,-0.0234358,38.1,6.15,81,-0.570015,0.31734,10.0216
35488203,0.0351537,0.0138484,-0.00426106,36.45,6.75,81.15,-0.340093,0.25986,9.55215
35500415,-0.0479369,0.0255663,-0.00745685,37.2,5.25,81.45,-0.773591,0.535287,10.4551
35523203,-0.036219,-0.0117179,-0.0170442,37.05,6.6,81,-0.0383203,0.0682581,8.75461
35535374,-0.056459,-0.036219,-0.00639159,36.45,6.45,81.15,-0.119751,0.422721,10.2419
35558204,-0.0713727,-0.0170442,-0.0276969,37.05,6.6,81.3,-0.205972,0.152084,9.80842
35571385,-0.0553937,0.0479369,-0.0330232,37.35,4.8,81.3,-0.826282,0.458646,10.0503
35584369,-0.0681769,0.00852211,-0.0372843,36.3,5.55,81.3,-0.58678,0.199984,9.67909
35607203,0.116114,0.00213053,0.0213053,35.4,4.95,82.5,-0.208367,0.786764,10.6275
35619390,-0.125701,0.0287621,-0.0170442,37.2,5.25,81.45,-0.428709,-0.238304,9.15218
35642204,0.126766,-0.00106526,-0.0127832,37.05,5.85,82.35,-0.505349,0.34129,10.2587
35654373,-0.0170442,0.052198,-0.0330232,36.3,5.1,83.1,-0.704136,0.695753,10.0048
35677204,-0.0106526,-0.0138484,-0.0308927,37.5,4.5,81.75,0.167651,0.353265,9.13302
35690372,-0.0117179,-0.0181095,-0.02024,37.8,6,82.8,-0.383203,0.518522,10.7233
35713203,0.0852212,0.0447411,0.00213053,36.45,4.5,81.75,-0.411943,0.207169,9.20248
35726373,-0.0543285,0.0862864,-0.015979,35.7,6,82.5,-0.941243,0.353265,10.6155
35749220,0.0809601,0.0511327,0.02024,37.5,5.25,82.5,-0.687371,0.449066,10.1892
35762373,-0.276969,0.0607201,-0.107592,36.6,5.55,83.7,-0.498164,-0.367636,9.01567
35785203,0.136354,0.0500674,-0.00426106,37.05,4.05,82.65,-0.407153,0.576002,10.9341
35797373,-0.148072,0.0234358,-0.0170442,37.05,4.05,84.75,-0.00958008,1.17955,9.59287
35820209,-0.257794,-0.00852211,-0.0479369,37.05,4.35,83.4,-0.368833,0.231119,8.60133
35832369,0.12144,-0.0106526,0.0245011,36.6,5.1,82.35,-0.299377,0.650248,9.40127
35855203,-0.115049,0.00319579,-0.00426106,36.3,3.3,84.45,-0.926873,0.631088,11.2406
35867378,-0.0394148,-0.0255663,-0.0106526,37.8,3.45,83.85,-0.0574805,-1.1053,10.0599
35880673,-0.968325,-0.233293,-0.04048,36.3,4.35,84.45,-5.25467,1.32325,0.973192
35903203,-0.64555,-0.953412,-0.44315,37.2,4.2,82.8,0.174836,3.88352,15.1637
35915374,0.204531,-0.056459,0.306796,36.75,4.2,83.85,-0.277822,-1.21068,10.8047
35938209,0.433563,0.105461,0.0607201,34.95,3.45,85.35,-2.36628,1.38791,11.6119
35950376,-0.0266316,0.0639159,0.166181,37.5,3.75,86.4,1.56155,0.262255,7.14755
35973203,-0.122505,-0.131028,-0.0607201,36.75,3.75,84.9,-0.613125,0.401166,9.34858
35985382,-0.252468,-0.0106526,0.00319579,36.75,3.45,84.6,0.481399,0.753234,10.1892
36008203,0.399474,0.218379,0.120375,36.6,2.1,85.8,-1.84417,-0.0730481,9.87787
36020376,-0.296144,-0.0383495,-0.0511327,36.75,3,85.65,-0.342488,1.58431,8.91987
36043220,-0.184291,-0.205596,-0.0543285,36.3,3.3,85.8,0.766406,0.295785,7.8924
36056376,-0.377104,-0.166181,-0.0639159,35.85,3.3,86.85,1.80105,1.51006,8.58217
36079203,0.109722,0.133158,0.129962,36.6,1.35,85.8,-2.27766,-0.26465,11.8633
36091373,0.231162,0.0820254,0.0969391,36.3,2.55,85.8,-1.1544,-0.0682581,11.5472
36114209,-0.0777643,-0.0479369,0.0276969,35.4,1.65,86.4,1.40348,0.30776,6.6901
36127377,0.246076,0.15979,0.147006,34.65,1.65,87.45,-0.390388,1.88847,13.4632
36150203,-0.325971,0.0830906,-0.0543285,37.2,1.95,86.7,-1.0107,0.523312,5.9716
36162381,-0.366451,0.0372843,-0.092678,36.75,-0.45,88.05,-2.33035,-0.769999,11.7292
36185203,0.181095,-0.103331,0.0213053,34.8,0.3,88.95,-0.244292,1.38312,10.4862
36198377,0.125701,0.137419,0.122505,35.55,0.6,87.9,0.452659,0.935255,9.08512
36221242,-0.00426106,0.0671117,0.0894822,36.45,1.65,87.45,0.730481,1.67532,9.67909
36234374,0.0681769,0.00213053,0.0862864,36.15,1.65,87.75,0.5772,0.968785,8.17262
36257203,-0.490022,-0.04048,-0.0255663,36.75,0.45,89.55,-1.38911,0.477806,9.82039
36269374,0.327036,0.0266316,0.116114,36.3,1.05,88.65,-1.98787,0.738864,13.2093
36282380,-0.136354,-0.0127832,0.0276969,36.3,0.3,90,-0.306563,0.101788,6.97511
36305203,0.308927,0.0820254,0.106526,36.45,0.15,88.05,-0.613125,1.48132,11.9591
36317374,-0.0138484,0.0628506,0.0223706,35.85,0,90,-0.0119751,0.393981,8.72348
36340256,0.0351537,0.157659,0.0894822,35.85,-0.3,90,-1.25739,0.405956,11.9855
36353376,0.107592,0.148072,0.0308927,36.3,-1.35,89.7,-1.93278,-0.00119751,10.2299
36376203,-0.22264,-0.0649811,-0.0415453,36.45,-2.7,89.85,-0.893342,0.626298,8.32351
36388372,0.236489,-0.0713727,0.0596548,36.3,-1.05,89.7,0.138911,1.65855,12.1555
36412213,-0.291882,0.00213053,-0.0255663,36.3,-0.6,89.7,0.112566,0.0299377,6.13206
36425376,0.0980043,-0.0276969,0.0287621,37.05,-1.35,90.3,-0.747246,1.01908,11.1592
36448203,-0.22264,-0.0788296,-0.0276969,36.45,-2.7,90.6,-0.608335,0.149689,10.0503
36460396,0.219444,-0.0628506,0.0149137,36.3,-2.55,90.75,0.246687,1.38791,7.68883
36483203,-0.413323,-0.132093,-0.072438,35.55,-2.85,90.3,1.30529,1.90763,12.4597
36495376,0.372843,0.128897,0.168312,36.45,-2.4,90.6,1.61664,-0.552052,5.14532
36518232,-0.606135,-0.110787,-0.116114,36.45,-4.2,90.6,-1.16398,0.30297,11.0993
36531378,0.0862864,-0.0138484,0.00213053,35.55,-2.1,91.35,-1.27894,0.901725,9.69106
36544355,0.0479369,0.0266316,0.133158,36.3,-4.05,90.3,-0.65384,0.528102,12.692
36567204,0.388821,0.297209,0.0426106,35.85,-4.05,90.75,-1.41546,1.19392,10.1413
36579484,0.234358,0.328101,0.282295,37.05,-3.6,91.8,-2.94348,0.0443079,12.9339
36602207,0.0532632,-0.0745685,-0.00106526,36.45,-4.5,91.65,-2.28245,-1.41426,8.78814
36614349,-0.299339,-0.271642,-0.0820254,34.95,-4.95,91.2,1.6837,2.36269,9.35337
36637204,-0.00532632,0.120375,0.0788296,34.95,-6.45,91.65,0.447869,0.815504,9.08033
36649377,0.113983,0.129962,0.0745685,35.4,-5.7,92.25,-0.934058,1.27056,12.0094
36672204,-0.226901,-0.0671117,-0.04048,35.85,-6.15,93.15,-0.129331,0.113763,5.41595
36684355,0.0713727,-0.036219,0.00852211,34.8,-7.35,90.75,-0.687371,2.27886,12.2633
36707269,-0.205596,0.0234358,-0.0394148,35.4,-5.25,91.95,-1.85135,1.86213,8.98693
36720373,0.155529,-0.0234358,0.0191748,34.65,-6.75,91.65,-0.874182,2.58782,10.3712
36743206,0.236489,0.0415453,0.0969391,35.85,-7.65,91.8,-0.191602,2.64769,9.13781
36755351,0.0511327,-0.0298274,0.0852212,36.6,-8.1,92.4,0.0359253,1.24182,9.99763
36778210,0.14168,-0.0543285,0.0308927,36.75,-7.5,90.9,-1.70046,0.959205,11.1664
36790373,-0.104396,0.0287621,-0.0181095,34.5,-6.6,91.35,-0.737666,0.370031,7.83732
36813202,0.230097,0.102265,0.0276969,36.15,-8.7,91.95,-1.52084,1.61305,11.6861
36825402,-0.135289,-0.00319579,-0.00532632,36.75,-6.75,92.7,-0.287402,1.43102,7.9882
36848203,-0.219444,-0.102265,-0.0639159,35.4,-9,92.25,0.186812,1.06698,8.82886
36860376,-0.0458064,-0.0415453,0.0117179,37.2,-8.25,93,-0.292192,1.56754,12.3735
36883220,0.143811,0.133158,0.0713727,36.75,-9,92.25,-1.24062,0.681383,8.77138
36896373,-0.0500674,0.0958738,0.00745685,36.15,-10.5,91.95,-1.81063,1.3448,11.9951
36919203,0.0447411,-0.110787,0.0213053,36.45,-9.3,92.7,-0.524509,1.60107,7.19306
36931373,-0.0245011,-0.165116,0.0298274,36.15,-9.3,92.25,1.3963,2.36987,9.34139
36954209,0.0649811,0.0735032,0.103331,35.85,-8.4,93.15,-0.747246,0.765209,10.6802
36967374,0.164051,0.0245011,0.0298274,37.2,-12,92.7,-1.19272,1.2514,10.6012
36980376,-0.165116,-0.0479369,-0.04048,36.45,-9.75,92.25,-0.452659,1.19152,9.2887
37003232,0.124636,-0.00852211,0.00106526,35.85,-9.6,92.85,0.146096,1.84057,9.78926
37016376,-0.0937433,0.0500674,-0.00213053,36.6,-11.4,93.45,-0.191602,1.34959,9.87787
37039203,0.00426106,0.0308927,-0.00852211,36.15,-10.8,92.7,-0.474214,1.20829,9.89464
37051373,-0.0287621,0.00958738,-0.00426106,36.3,-11.85,93.15,-0.526904,1.43102,10.1365
37074209,-0.0170442,0.0383495,-0.0106526,37.5,-10.5,93,-0.265847,1.37115,9.44198
37086377,-0.0639159,0.0458064,-0.0181095,37.5,-13.05,92.7,-0.522114,1.46934,9.90422
37109203,0.0351537,0.0447411,0,36.15,-11.25,91.95,-0.713716,1.36157,9.72459
37121428,-0.0596548,0.0191748,-0.0330232,35.25,-11.4,92.4,-0.831072,1.35438,9.49946
37144203,0.0170442,0.0170442,-0.0127832,36.45,-11.55,91.65,-0.706531,1.36875,9.97368
37156377,0.00852211,0.0191748,0.00745685,35.25,-11.85,92.4,-0.471819,1.27774,9.65993
37179246,-0.036219,-0.00319579,-0.00426106,35.55,-12.9,91.8,-0.318538,1.36396,9.85392
37192373,-0.00745685,-0.00319579,0.0191748,35.55,-12.9,92.4,-0.318538,1.51245,9.98326
37215203,-0.0170442,0.00958738,0.0245011,37.05,-12.15,93.9,-0.368833,1.37115,9.69106
37227374,-0.0394148,0.015979,0.0223706,35.25,-12.9,92.1,-0.481399,1.40707,9.92099
37251217,-0.00852211,0.0127832,0.0181095,36.3,-12.15,92.4,-0.395178,1.36396,9.70543
37264376,-0.0340885,0.00852211,0.0117179,35.25,-13.65,93.45,-0.479004,1.37594,9.69346
37277373,-0.0138484,0.0127832,0.00639159,35.25,-13.2,92.4,-0.490979,1.16039,9.82997
37300229,-0.0138484,0.0181095,0.00319579,36.15,-14.25,92.7,-0.59157,1.22505,9.74615
37313377,-0.0213053,0.0117179,-0.00745685,35.4,-13.5,91.65,-0.399968,1.08614,9.92099
37336203,-0.076699,0.00319579,-0.0127832,34.5,-13.95,92.85,-0.285007,0.911305,9.624
37348373,-0.00745685,0.0340885,-0.00319579,37.05,-12.45,92.85,-0.60115,0.896935,10.1557
37372224,0.00532632,0.00213053,-0.0106526,35.55,-13.65,93.15,-0.335303,0.377216,9.60484
37385377,-0.0841559,-0.0852212,-0.151268,36.45,-13.5,93,0.737666,0.556842,9.99523
37408203,-0.0649811,0.072438,0.00106526,35.55,-13.2,92.1,-0.526904,1.01908,9.46833
37421421,-0.181095,-0.00426106,-0.0798948,36.15,-13.8,92.25,-0.627495,0.758024,9.01567
37434377,-0.0617853,-0.0351537,-0.0276969,36.6,-13.2,92.4,-1.02746,0.00359253,10.2563
37457203,0.00639159,-0.0596548,-0.0479369,35.55,-14.4,91.8,-0.287402,0.511337,10.0815
37470376,-0.0191748,0.00319579,-0.0245011,35.7,-13.05,92.7,-0.723296,0.389191,10.0862
37493209,0.0340885,0.00852211,-0.0170442,34.95,-12.75,90.9,-0.627495,0.662223,9.83237
37506377,-0.00639159,-0.0170442,-0.0319579,35.55,-13.2,92.1,-0.593965,0.611928,9.79405
37529203,-0.015979,-0.0223706,-0.0383495,36.45,-13.05,93,-0.368833,0.599952,9.71262
37541425,-0.0266316,-0.0447411,-0.0468716,36.3,-14.4,91.35,-0.0359253,0.614323,9.54497
37564203,0.0117179,-0.0181095,-0.0340885,36.45,-13.5,92.25,0.148491,0.473016,9.58568
37576374,-0.0447411,-0.00639159,-0.0383495,35.7,-13.8,93.3,-0.0431104,0.410746,9.63358
37599240,0,0.0138484,-0.0106526,36.45,-13.5,93.3,-0.0790356,0.583187,10.1413
37612377,-0.015979,0.0117179,-0.00532632,36.15,-14.25,91.95,-0.356858,0.415536,9.51383
37625668,-0.0447411,0.0117179,0.00532632,36.75,-12.75,91.95,-0.457449,0.702938,9.95931
37648203,0.0106526,0.00426106,0.0106526,34.95,-14.55,94.05,-0.59157,0.523312,9.9114
37660405,-0.0181095,0.0117179,0.0149137,36.45,-12.75,93.3,-0.246687,0.614323,9.62879
37683203,-0.0255663,-0.00213053,0,35.85,-13.2,92.1,-0.356858,0.602347,9.84913
37695367,-0.00639159,0.0138484,0.0149137,37.8,-14.25,91.95,-0.495769,0.580792,9.7677
37718203,-0.02024,0.00745685,0.00639159,36.6,-13.2,92.4,-0.536484,0.477806,9.88027
37731382,-0.00532632,0.00958738,0.0106526,36.15,-14.25,93.3,-0.445474,0.482596,10.0024
37754203,-0.00532632,0.00532632,0.00639159,34.95,-12,92.25,-0.368833,0.537682,9.74854
37766373,0.00532632,0.015979,0.0170442,36.3,-12.45,92.85,-0.421523,0.554447,9.90662
37789217,0.0149137,0.02024,0.0181095,35.55,-12.45,93.15,-0.419128,0.549657,9.79644
37802376,-0.0127832,0.0106526,0.00532632,36.3,-12.9,92.4,-0.603545,0.518522,9.81081
37825203,-0.0149137,0.00532632,0.00745685,36.45,-13.05,92.7,-0.258662,0.516127,9.83237
37837373,-0.0223706,0.0138484,0.00745685,36.3,-13.65,91.8,-0.486189,0.496967,9.73896
37860203,-0.0170442,0.00319579,0.00106526,36.6,-13.65,93.15,-0.308958,0.671803,9.82039
37872374,-0.02024,0.00532632,0.00213053,36.15,-13.8,93,-0.344883,0.571212,9.74854
37895203,-0.0223706,0.00426106,0.00639159,37.65,-13.65,93.15,-0.376018,0.619113,9.78207
37907380,-0.0383495,0.00106526,0.00106526,37.2,-12.75,93,-0.481399,0.482596,9.74615
37930203,-0.015979,-0.00639159,0.00106526,36.45,-13.5,93.75,-0.419128,0.554447,9.97847
37942376,-0.00958738,0,0.0117179,36.75,-13.5,92.25,-0.462239,0.461041,9.85632
37965220,-0.00639159,0.00958738,0.0106526,35.7,-13.05,92.7,-0.452659,0.554447,9.99284
37978373,0.0127832,0.0245011,0.0138484,35.4,-14.25,91.95,-0.61073,0.496967,9.9641
38001203,-0.00426106,0.0127832,0.00745685,35.25,-13.2,91.8,-0.452659,0.559237,9.77489
