timestamp,q0,q1,q2,q3,accel_x,accel_y,accel_z
14952112,0.883048,-0.0177806,0.0236936,0.468346,-0.131726,0.112566,10.5886
14973919,0.882848,-0.017736,0.0236959,0.468726,-0.150886,0.155676,10.5814
14986111,0.882667,-0.017741,0.023695,0.469066,-0.162861,0.162861,10.6173
15007953,0.882498,-0.0177825,0.0237242,0.469381,-0.196392,0.203577,10.6245
15020111,0.882356,-0.0178201,0.0237674,0.469645,-0.203577,0.201182,10.6389
15041922,0.882254,-0.0178249,0.0237512,0.469836,-0.0934058,0.162861,10.6341
15054112,0.882114,-0.0179119,0.0237337,0.470096,-0.239502,0.131726,10.5958
15075922,0.881936,-0.0179557,0.0237236,0.47043,-0.167651,0.141306,10.6077
15088111,0.88175,-0.0179344,0.0237278,0.470778,-0.174836,0.201182,10.6413
15109921,0.88158,-0.0179439,0.0237342,0.471096,-0.205972,0.141306,10.5982
15122111,0.881445,-0.017973,0.0237511,0.471347,-0.160466,0.234712,10.6029
15143921,0.881321,-0.0179885,0.0237418,0.471578,-0.102986,0.184417,10.591
15165922,0.881107,-0.0179502,0.0237536,0.471978,-0.167651,0.158071,10.6101
15178107,0.880965,-0.0179566,0.0237776,0.472242,-0.141306,0.172441,10.6461
15200921,0.880746,-0.0180523,0.0237665,0.472647,-0.148491,0.203577,10.579
15213107,0.880576,-0.0180504,0.0237827,0.472963,-0.179626,0.179626,10.6245
15234921,0.880419,-0.0180654,0.0237735,0.473256,-0.153281,0.174836,10.6365
15247140,0.880244,-0.01809,0.0237461,0.473581,-0.143701,0.150886,10.6245
15268921,0.880067,-0.0180843,0.0237077,0.473912,-0.160466,0.170046,10.5814
15281106,0.879932,-0.0180887,0.0237207,0.474162,-0.131726,0.182021,10.6389
15302921,0.879786,-0.0180562,0.0237407,0.474434,-0.172441,0.179626,10.6796
15315104,0.879606,-0.0180726,0.0237153,0.474767,-0.179626,0.0934058,10.6221
15336921,0.879437,-0.0180972,0.0237313,0.47508,-0.143701,0.158071,10.5503
15349103,0.879289,-0.0180942,0.0237673,0.47535,-0.172441,0.186812,10.6461
15370971,0.87912,-0.0180949,0.023754,0.475664,-0.201182,0.193997,10.6916
15392921,0.87896,-0.018087,0.0237265,0.475962,-0.203577,0.196392,10.579
15405107,0.878796,-0.0181361,0.0237522,0.476261,-0.112566,0.184417,10.6317
15426944,0.878632,-0.0181291,0.0237453,0.476563,-0.208367,0.203577,10.6245
15439112,0.878445,-0.0181096,0.0237159,0.476911,-0.172441,0.198787,10.67
15460922,0.878284,-0.0181448,0.0237437,0.477205,-0.179626,0.184417,10.6125
15473111,0.878125,-0.0181724,0.0237344,0.477496,-0.184417,0.177231,10.6006
15494922,0.877979,-0.0181831,0.0237664,0.477763,-0.143701,0.213157,10.6748
15507111,0.877815,-0.018153,0.0237071,0.478068,-0.102986,0.162861,10.6341
15528921,0.877657,-0.0181704,0.0236964,0.478358,-0.153281,0.220342,10.6149
15541111,0.877488,-0.0181671,0.0236505,0.478671,-0.136516,0.229922,10.6508
15562921,0.877311,-0.0181794,0.0236683,0.478993,-0.174836,0.172441,10.6269
15584922,0.877112,-0.0181449,0.0236282,0.47936,-0.131726,0.150886,10.6245
15597105,0.876955,-0.0181853,0.0235748,0.479649,-0.112566,0.155676,10.6341
15619921,0.876786,-0.0181372,0.0235589,0.479961,-0.158071,0.160466,10.6508
15632107,0.876644,-0.0181434,0.0235454,0.480221,-0.110171,0.213157,10.6245
15653921,0.876488,-0.018158,0.0235146,0.480505,-0.148491,0.182021,10.6149
15666125,0.87632,-0.0181626,0.0234812,0.480814,-0.210762,0.136516,10.6365
15688923,0.876162,-0.0181718,0.0234972,0.481101,-0.155676,0.182021,10.6269
15701107,0.875983,-0.0181519,0.0235153,0.481427,-0.141306,0.182021,10.6077
15722921,0.875799,-0.0181307,0.023515,0.481761,-0.150886,0.186812,10.6197
15735108,0.875627,-0.0181549,0.0234845,0.482075,-0.174836,0.234712,10.6508
15756921,0.875469,-0.0182326,0.0234622,0.482359,-0.153281,0.150886,10.6413
15769107,0.875304,-0.0181965,0.023453,0.48266,-0.165256,0.177231,10.5766
15790946,0.875132,-0.0181857,0.0234531,0.482973,-0.136516,0.143701,10.7227
15803107,0.87496,-0.0181688,0.0234074,0.483287,-0.146096,0.198787,10.6101
15824922,0.874789,-0.0182115,0.0234166,0.483596,-0.205972,0.153281,10.5958
15837410,0.874612,-0.0181596,0.0233963,0.483919,-0.124541,0.177231,10.6125
15860921,0.874509,-0.0181773,0.0233968,0.484103,-0.153281,0.141306,10.6485
15873109,0.87436,-0.0182063,0.0234266,0.48437,-0.165256,0.117356,10.555
15894921,0.874195,-0.0181895,0.0234265,0.484668,-0.114961,0.208367,10.6652
15907152,0.874008,-0.01814,0.0234521,0.485006,-0.193997,0.138911,10.5958
15928922,0.873842,-0.0181216,0.0234374,0.485306,-0.141306,0.138911,10.658
15950921,0.873698,-0.0181453,0.0234388,0.485565,-0.172441,0.165256,10.6461
15963111,0.873547,-0.0181236,0.0234215,0.485838,-0.215552,0.146096,10.6365
15984921,0.87334,-0.0180879,0.0234652,0.48621,-0.122146,0.227527,10.6556
15997113,0.873139,-0.0180819,0.0234686,0.48657,-0.205972,0.174836,10.6604
16018921,0.872973,-0.0181521,0.0234791,0.486865,-0.138911,0.138911,10.5982
16031111,0.872802,-0.0181454,0.0234946,0.48717,-0.162861,0.263452,10.6293
16052922,0.872631,-0.018165,0.0235264,0.487475,-0.160466,0.225132,10.6748
16065111,0.872489,-0.0181564,0.0235401,0.487728,-0.198787,0.210762,10.6461
16086945,0.872355,-0.0181393,0.0235006,0.48797,-0.126936,0.203577,10.6461
16099114,0.872187,-0.0181379,0.023478,0.488273,-0.148491,0.191602,10.6365
16120921,0.872032,-0.0181462,0.0235082,0.488546,-0.165256,0.170046,10.5718
16142921,0.871842,-0.018199,0.0234906,0.488885,-0.165256,0.193997,10.6556
16155108,0.87168,-0.0181911,0.0234795,0.489174,-0.0838257,0.225132,10.6197
16176922,0.871479,-0.0182038,0.0234874,0.489531,-0.126936,0.203577,10.579
16189108,0.871313,-0.0182058,0.023466,0.489828,-0.114961,0.172441,10.6508
16210946,0.871173,-0.0182279,0.0234255,0.490078,-0.124541,0.177231,10.6029
16223107,0.871002,-0.0182375,0.0234395,0.490381,-0.191602,0.170046,10.5694
16244922,0.870819,-0.0182342,0.0234061,0.490707,-0.191602,0.170046,10.6508
16257111,0.870693,-0.0182029,0.0233776,0.490933,-0.184417,0.198787,10.5838
16278936,0.870536,-0.0181887,0.0233774,0.491213,-0.167651,0.193997,10.6724
16291108,0.870412,-0.0181104,0.0233231,0.491437,-0.143701,0.167651,10.6317
16312922,0.8703,-0.0180463,0.0232761,0.49164,-0.205972,0.119751,10.5479
16335946,0.870187,-0.0179546,0.023226,0.491847,-0.122146,0.237107,10.5886
16348111,0.870074,-0.0178893,0.0231812,0.492051,-0.213157,0.131726,10.6197
16369922,0.86997,-0.017811,0.023131,0.492239,-0.155676,0.174836,10.6485
16382112,0.869829,-0.0176817,0.0230696,0.492495,-0.179626,0.193997,10.6173
16403921,0.869742,-0.0176027,0.0230229,0.492655,-0.162861,0.184417,10.6149
16416113,0.86961,-0.0175297,0.0229635,0.492893,-0.122146,0.138911,10.6341
16437921,0.869493,-0.0174507,0.0229045,0.493105,-0.107776,0.162861,10.6604
16450111,0.86938,-0.0173832,0.0228518,0.49331,-0.160466,0.126936,10.6125
16471922,0.869269,-0.017301,0.0228116,0.493509,-0.179626,0.225132,10.6437
16484111,0.869137,-0.0172251,0.0228258,0.493744,-0.165256,0.193997,10.6269
16505936,0.868997,-0.017229,0.0227657,0.493994,-0.129331,0.0742456,10.6173
16518112,0.868826,-0.0170423,0.023123,0.494283,-0.174836,0.213157,10.6197
16539921,0.868759,-0.0164505,0.022603,0.494445,0.241897,0.105381,10.773
16561921,0.868675,-0.0166729,0.0224973,0.494591,-0.426313,0.203577,10.5982
16574107,0.868499,-0.0165281,0.0223098,0.494913,-0.495769,0.148491,10.373
16595922,0.868292,-0.0163223,0.0225237,0.495273,-0.323328,0.167651,10.5718
16608107,0.86816,-0.0161385,0.0221349,0.495527,0.58199,0.285007,10.9382
16629946,0.868116,-0.0162457,0.021773,0.495618,-0.593965,0.126936,10.464
16642107,0.867905,-0.0162843,0.0220205,0.495975,-0.507744,0.0263452,10.4353
16663922,0.86777,-0.0156853,0.0219228,0.496235,0.498164,0.112566,10.8448
16676111,0.867696,-0.0159513,0.0215759,0.49637,-0.263452,0.167651,10.7993
16698945,0.867557,-0.0162158,0.0217456,0.496597,-0.538879,0.428709,10.3347
16711108,0.867369,-0.0159338,0.0221238,0.496919,-0.174836,-0.110171,10.488
16732922,0.867191,-0.0154019,0.0218141,0.49726,0.411943,0.340093,10.9526
16745116,0.86712,-0.015885,0.021499,0.497382,-0.670605,0.0934058,10.6892
16767921,0.866902,-0.0164336,0.021908,0.497726,-0.409548,0.0263452,10.1
16780107,0.866724,-0.0150276,0.0219095,0.49808,0.376018,0.237107,10.6532
16801921,0.866672,-0.0148937,0.0215627,0.49819,-0.304167,0.299377,11.1993
16823921,0.866552,-0.0160622,0.0215478,0.498362,-0.505349,0.0838257,10.4568
16836108,0.866393,-0.0154536,0.0215781,0.498657,0.193997,0.129331,10.1766
16857921,0.866303,-0.0145997,0.0215942,0.498839,-0.107776,0.249082,11.0364
16870130,0.866228,-0.015374,0.0215018,0.498949,-0.546064,0.179626,10.7323
16891921,0.866117,-0.0155218,0.0215105,0.499136,-0.167651,0.0622705,10.1239
16904113,0.866014,-0.0143042,0.0214682,0.499354,0.203577,0.237107,10.7227
16925939,0.865958,-0.0145737,0.0214732,0.499442,-0.311353,0.296982,11.0388
16938112,0.865871,-0.0148528,0.0214079,0.499588,-0.318538,0.00718506,10.2652
16959921,0.865734,-0.0136545,0.0212379,0.499868,-0.0694556,-0.0910107,10.579
16972111,0.865584,-0.0132073,0.0209667,0.500151,-0.229922,0.58199,11.1203
16993946,0.865488,-0.0138524,0.0204649,0.500319,-0.203577,0.189207,10.3275
17015921,0.865381,-0.0129387,0.0200411,0.500547,-0.198787,-0.0383203,10.2102
17028107,0.865199,-0.0124567,0.0201888,0.500867,-0.160466,0.102986,11.0269
17050946,0.865167,-0.0129218,0.0196845,0.500932,-0.210762,0.191602,10.7993
17063107,0.865115,-0.0127649,0.0197316,0.501022,-0.124541,0.308958,10.2126
17084922,0.865055,-0.012101,0.0197774,0.501142,0.0670606,0.366438,10.8305
17097111,0.865056,-0.0123112,0.0194629,0.501147,-0.148491,0.143701,10.7969
17118936,0.864965,-0.0126476,0.019663,0.501287,-0.407153,-0.0574805,10.3155
17131108,0.864831,-0.0121263,0.0197324,0.501528,-0.0119751,0.273032,10.6125
17152922,0.864793,-0.0120466,0.0196954,0.501598,-0.301772,0.352068,10.749
17165119,0.864824,-0.0123381,0.0198525,0.50153,-0.347278,0.0958008,10.4904
17187921,0.864799,-0.0119291,0.0198568,0.501583,-0.203577,0.114961,10.6006
17200107,0.86486,-0.0117864,0.0197882,0.501485,-0.285007,0.241897,10.7634
17221921,0.864935,-0.012072,0.0197183,0.501352,-0.227527,0.239502,10.5431
17234108,0.865024,-0.0118017,0.0196977,0.501205,-0.201182,0.167651,10.4568
17255921,0.865019,-0.0114717,0.0196819,0.501222,-0.126936,0.177231,10.773
17268107,0.865061,-0.0115403,0.0196124,0.50115,-0.148491,0.208367,10.7466
17289946,0.865122,-0.0114931,0.0195823,0.501048,-0.110171,0.244292,10.5311
17311921,0.865142,-0.0111787,0.0195238,0.501023,0.0335303,0.246687,10.6916
17324113,0.86512,-0.0112489,0.0194414,0.501062,0.00718506,0.246687,10.7586
17345940,0.865062,-0.0113248,0.0194133,0.501161,-0.0981958,0.196392,10.567
17358112,0.864963,-0.0111771,0.0194075,0.501335,-0.0479004,0.246687,10.5407
17379921,0.864829,-0.0111215,0.0193552,0.501571,-0.0670606,0.146096,10.6532
17392111,0.864662,-0.0112894,0.0193871,0.501852,-0.172441,0.0886157,10.5718
17413946,0.864479,-0.0111041,0.0193821,0.502173,-0.146096,0.213157,10.579
17426111,0.864325,-0.0108996,0.0193072,0.502444,-0.119751,0.170046,10.6437
17447922,0.864174,-0.0109492,0.0193066,0.502704,-0.150886,0.177231,10.6437
17460112,0.863989,-0.0108378,0.0192665,0.503026,-0.129331,0.177231,10.6053
17481921,0.863827,-0.0107136,0.0192623,0.503307,-0.0646655,0.268242,10.6556
17503922,0.863648,-0.0107509,0.0192341,0.503613,-0.186812,0.198787,10.6796
17516107,0.863456,-0.0108713,0.0191831,0.503943,-0.201182,0.158071,10.579
17538939,0.86323,-0.0107935,0.0191263,0.504334,-0.138911,0.165256,10.6077
17551105,0.862998,-0.0107185,0.0190706,0.504733,-0.198787,0.119751,10.6365
17572922,0.862801,-0.0107821,0.0190689,0.505069,-0.174836,0.155676,10.579
17585115,0.862604,-0.0106339,0.0190474,0.505409,-0.105381,0.184417,10.5143
17607921,0.862357,-0.0104325,0.0190296,0.505835,-0.0814307,0.251477,10.6413
17620105,0.862123,-0.0104643,0.0190324,0.506234,-0.208367,0.174836,10.6724
17642921,0.861892,-0.0104025,0.019031,0.506628,-0.179626,0.201182,10.5742
17655107,0.861667,-0.010264,0.0189535,0.507016,-0.167651,0.193997,10.6245
17677921,0.861504,-0.0102707,0.018957,0.507292,-0.189207,0.182021,10.6269
17690107,0.861281,-0.0103069,0.0189071,0.507672,-0.170046,0.160466,10.5862
17711946,0.861019,-0.0101456,0.0188891,0.508121,-0.174836,0.174836,10.5646
17724107,0.860824,-0.0101311,0.0188911,0.508452,-0.222737,0.191602,10.7011
17745922,0.860626,-0.0101945,0.0188701,0.508785,-0.275427,0.172441,10.6556
17758111,0.860484,-0.0101117,0.0188603,0.509027,-0.177231,0.177231,10.6006
17779921,0.86031,-0.00995039,0.0188596,0.509325,-0.203577,0.232317,10.6485
17792109,0.86015,-0.00998269,0.0188574,0.509594,-0.225132,0.229922,10.6293
17813921,0.860004,-0.00993188,0.0188343,0.509843,-0.184417,0.217947,10.6053
17835946,0.859864,-0.00988017,0.0188065,0.51008,-0.160466,0.208367,10.6245
17848111,0.859723,-0.00992306,0.018805,0.510317,-0.251477,0.239502,10.5622
17869922,0.859601,-0.00990106,0.0188284,0.510523,-0.193997,0.208367,10.6245
17882112,0.859511,-0.00984643,0.0188077,0.510676,-0.182021,0.229922,10.567
17903921,0.859419,-0.0098049,0.0187887,0.510832,-0.225132,0.177231,10.6101
17916113,0.859331,-0.00985238,0.0187975,0.510979,-0.165256,0.150886,10.567
17937921,0.85923,-0.0097374,0.0187902,0.511151,-0.146096,0.244292,10.6173
17950111,0.859115,-0.00969502,0.0187708,0.511347,-0.220342,0.186812,10.6389
17971922,0.85899,-0.00977045,0.0187549,0.511556,-0.129331,0.160466,10.6245
17984111,0.858893,-0.009727,0.0187309,0.511721,-0.196392,0.174836,10.6149
18005942,0.858826,-0.00962754,0.0186406,0.511837,-0.198787,0.117356,10.6413
18027922,0.858746,-0.00957801,0.0186108,0.511974,-0.165256,0.198787,10.6197
18040107,0.8586,-0.00953665,0.0185804,0.512221,-0.167651,0.160466,10.6101
18061921,0.858498,-0.0094902,0.018553,0.512393,-0.167651,0.182021,10.6221
18074107,0.858422,-0.00951698,0.0185373,0.51252,-0.186812,0.186812,10.6006
18095922,0.858335,-0.00941843,0.0184667,0.512671,-0.138911,0.213157,10.6317
18108107,0.858232,-0.00936814,0.0184289,0.512846,-0.107776,0.172441,10.6293
18129946,0.858109,-0.00933547,0.0184401,0.513052,-0.0479004,0.227527,10.5646
18142107,0.857971,-0.00928493,0.0184141,0.513283,-0.155676,0.213157,10.5718
18163922,0.857876,-0.00924356,0.0183939,0.513444,-0.208367,0.179626,10.6508
18176111,0.857772,-0.00919207,0.0183704,0.513619,-0.162861,0.217947,10.5742
18198944,0.857633,-0.00909224,0.0183346,0.513855,-0.141306,0.205972,10.6485
18211108,0.857547,-0.00904413,0.0183057,0.514,-0.148491,0.186812,10.658
18232922,0.857415,-0.00907631,0.0182412,0.514222,-0.167651,0.170046,10.5838
18245416,0.857292,-0.00903297,0.0182194,0.514428,-0.189207,0.191602,10.6149
18268922,0.857147,-0.00898486,0.0181571,0.514674,-0.203577,0.201182,10.6341
18281107,0.857028,-0.00894951,0.0181255,0.514873,-0.162861,0.129331,10.5886
18303921,0.856911,-0.00878613,0.0180946,0.515072,-0.174836,0.177231,10.5958
18316108,0.856789,-0.00874782,0.0180629,0.515277,-0.155676,0.146096,10.694
18337922,0.856633,-0.0088406,0.0179974,0.515536,-0.174836,0.153281,10.6173
18350108,0.856532,-0.00879528,0.0179672,0.515706,-0.138911,0.174836,10.5934
18371946,0.85645,-0.00869369,0.0180373,0.515841,-0.162861,0.208367,10.6604
18393921,0.856362,-0.00865378,0.0180177,0.51599,-0.201182,0.179626,10.6293
18406113,0.856205,-0.00860674,0.0179757,0.516251,-0.0790356,0.165256,10.5934
18427968,0.856103,-0.00849446,0.0180032,0.516422,-0.182021,0.105381,10.6532
18440111,0.855951,-0.00850439,0.0179493,0.516675,-0.146096,0.117356,10.6341
18461922,0.855847,-0.00852641,0.0178822,0.516849,-0.117356,0.119751,10.5742
18474112,0.855748,-0.00841002,0.0178698,0.517015,-0.182021,0.160466,10.6197
18495946,0.855622,-0.0083,0.017896,0.517225,-0.177231,0.189207,10.6341
18508112,0.855528,-0.00830938,0.0178962,0.51738,-0.138911,0.172441,10.5934
18529922,0.855428,-0.00826761,0.0178798,0.517546,-0.201182,0.203577,10.5766
18542111,0.855314,-0.00821007,0.0178521,0.517736,-0.110171,0.246687,10.6461
18563921,0.855189,-0.0081701,0.017814,0.517946,-0.107776,0.143701,10.5934
18585922,0.855068,-0.00812736,0.0177877,0.518147,-0.150886,0.186812,10.567
18598108,0.854941,-0.00808962,0.0177618,0.518358,-0.167651,0.167651,10.6413
18620921,0.854826,-0.00809763,0.0177653,0.518547,-0.241897,0.193997,10.6173
18633107,0.854704,-0.00806673,0.0177359,0.51875,-0.167651,0.126936,10.5886
18654921,0.854595,-0.00796832,0.0176609,0.518933,-0.0910107,0.153281,10.6676
18667147,0.854478,-0.0079339,0.017647,0.519127,-0.225132,0.184417,10.6173
18688921,0.854389,-0.00790038,0.0176187,0.519274,-0.162861,0.136516,10.6029
18701113,0.85431,-0.00785016,0.0175874,0.519407,-0.105381,0.201182,10.6341
18722921,0.854195,-0.00781086,0.0175705,0.519597,-0.196392,0.198787,10.6245
18735108,0.85405,-0.00784167,0.017565,0.519835,-0.160466,0.160466,10.5814
18756922,0.853945,-0.00780157,0.0175386,0.520009,-0.150886,0.174836,10.5934
18769108,0.853827,-0.00775361,0.0175762,0.520202,-0.189207,0.193997,10.6628
18790946,0.853663,-0.00768576,0.017596,0.520472,-0.198787,0.234712,10.6077
18812921,0.853547,-0.00764147,0.0175858,0.520662,-0.208367,0.241897,10.5598
18825113,0.853436,-0.00760727,0.0175664,0.520845,-0.196392,0.172441,10.6173
18846951,0.853328,-0.00756969,0.0175407,0.521024,-0.158071,0.170046,10.6077
18859112,0.853223,-0.00753245,0.0175263,0.521197,-0.208367,0.198787,10.6101
18880922,0.853125,-0.00744283,0.017466,0.521362,-0.165256,0.162861,10.5694
18893111,0.853026,-0.00739693,0.0174382,0.521525,-0.124541,0.201182,10.658
18914950,0.852957,-0.00727628,0.0174175,0.52164,-0.114961,0.158071,10.6724
18927111,0.852905,-0.00725092,0.0173948,0.521726,-0.198787,0.117356,10.5838
18948922,0.852826,-0.00720506,0.0173721,0.521856,-0.141306,0.213157,10.567
18961112,0.852775,-0.00716565,0.0173534,0.521942,-0.179626,0.191602,10.6485
18982921,0.852718,-0.00707259,0.0173477,0.522035,-0.153281,0.131726,10.6437
19004922,0.852633,-0.00707725,0.0172666,0.522176,-0.131726,0.174836,10.6676
19017108,0.852499,-0.00698694,0.0173069,0.522396,-0.119751,0.261057,10.6532
19039921,0.852408,-0.00695531,0.0172839,0.522545,-0.177231,0.155676,10.6676
19052107,0.852294,-0.00700762,0.0172521,0.522731,-0.186812,0.196392,10.6317
19073921,0.852183,-0.00697984,0.0172265,0.522914,-0.172441,0.134121,10.5982
19086148,0.85208,-0.00694306,0.0171902,0.523083,-0.100591,0.143701,10.6029
19107923,0.851942,-0.00689639,0.0171609,0.523309,-0.105381,0.213157,10.6868
19120107,0.851797,-0.00691658,0.0171777,0.523545,-0.167651,0.184417,10.6317
19141921,0.851707,-0.00688513,0.0171605,0.523693,-0.198787,0.170046,10.6269
19154107,0.851616,-0.00685111,0.017138,0.523842,-0.167651,0.167651,10.6221
19175922,0.851553,-0.00682416,0.0171218,0.523944,-0.213157,0.148491,10.5766
19188108,0.851476,-0.00680187,0.0170882,0.524071,-0.148491,0.0838257,10.5862
19209946,0.851389,-0.0067572,0.0170572,0.524213,-0.100591,0.191602,10.6676
19231921,0.851316,-0.00671988,0.0170371,0.524334,-0.167651,0.186812,10.6532
19244113,0.851211,-0.00668462,0.0170095,0.524505,-0.136516,0.162861,10.6029
19265951,0.851089,-0.00660524,0.0170345,0.524703,-0.215552,0.167651,10.6101
19278112,0.850966,-0.00657288,0.0170192,0.524903,-0.198787,0.189207,10.6556
19299921,0.850877,-0.00653956,0.0169958,0.52505,-0.158071,0.165256,10.5886
19312111,0.850765,-0.00651403,0.0169703,0.525232,-0.167651,0.129331,10.5574
19333946,0.850679,-0.00647002,0.0169495,0.525372,-0.143701,0.220342,10.7011
19346112,0.850571,-0.00649736,0.0169605,0.525547,-0.153281,0.237107,10.6413
19367922,0.850455,-0.0063919,0.0169887,0.525734,-0.201182,0.203577,10.591
19380112,0.850388,-0.00636286,0.0169655,0.525843,-0.170046,0.146096,10.6149
19401921,0.85033,-0.00636324,0.0168961,0.52594,-0.155676,0.186812,10.6149
19423922,0.850209,-0.00634207,0.0168745,0.526137,-0.193997,0.124541,10.591
19436107,0.850103,-0.00621134,0.0168557,0.526309,-0.117356,0.134121,10.6652
19458936,0.850049,-0.00624206,0.0168447,0.526397,-0.158071,0.158071,10.6173
19471104,0.849995,-0.00629238,0.0168511,0.526483,-0.141306,0.167651,10.5455
19492922,0.849911,-0.00616491,0.0168159,0.526622,-0.148491,0.167651,10.6365
19505117,0.849788,-0.00613418,0.016812,0.52682,-0.244292,0.217947,10.6556
19527921,0.849673,-0.00618827,0.0167836,0.527007,-0.237107,0.122146,10.6413
19540105,0.849579,-0.00615079,0.0167517,0.527159,-0.100591,0.165256,10.5742
19562921,0.849448,-0.00612712,0.0167262,0.527372,-0.167651,0.129331,10.6772
19575107,0.849309,-0.00609964,0.0167074,0.527596,-0.184417,0.165256,10.6461
19596922,0.849231,-0.00607191,0.0166867,0.527723,-0.174836,0.150886,10.5838
19609108,0.849153,-0.0060309,0.0166593,0.527849,-0.110171,0.191602,10.6269
19630946,0.849081,-0.00598225,0.0166842,0.527965,-0.186812,0.191602,10.6341
19643107,0.848974,-0.00594172,0.0166694,0.528138,-0.162861,0.229922,10.5814
19664922,0.848905,-0.00590603,0.0166382,0.528251,-0.105381,0.158071,10.6029
19677111,0.848821,-0.00586185,0.0166211,0.528386,-0.143701,0.237107,10.6221
19698936,0.848682,-0.00583277,0.0166091,0.52861,-0.203577,0.193997,10.6006
19711108,0.848617,-0.00580353,0.0165915,0.528715,-0.182021,0.167651,10.6341
19732922,0.848502,-0.0057407,0.0165087,0.528904,-0.150886,0.141306,10.5742
19755922,0.848402,-0.00580154,0.0165217,0.529063,-0.237107,0.196392,10.579
19768111,0.848268,-0.00578625,0.0165578,0.529276,-0.131726,0.217947,10.6461
19789921,0.848183,-0.00575426,0.0165302,0.529414,-0.126936,0.155676,10.6077
19802111,0.848093,-0.00573444,0.0165182,0.529559,-0.227527,0.146096,10.579
19823921,0.848022,-0.00570376,0.0165074,0.529673,-0.203577,0.193997,10.5958
19836113,0.847949,-0.00566807,0.0164925,0.529791,-0.172441,0.205972,10.6365
19857921,0.847805,-0.00563635,0.016471,0.530022,-0.148491,0.182021,10.5646
19870134,0.847704,-0.0055614,0.0164099,0.530186,-0.210762,0.160466,10.6341
19891921,0.8476,-0.00552039,0.0163859,0.530355,-0.112566,0.210762,10.6101
19904113,0.847517,-0.00553936,0.0163831,0.530486,-0.146096,0.246687,10.6389
19925945,0.847385,-0.00551836,0.0163632,0.530698,-0.184417,0.138911,10.6269
19938112,0.847253,-0.00541656,0.0162977,0.530911,-0.160466,0.268242,10.6029
19959921,0.847119,-0.00549297,0.0162593,0.531126,-0.239502,0.193997,10.6413
19981921,0.847025,-0.00546115,0.016242,0.531276,-0.165256,0.186812,10.6389
19994107,0.846935,-0.00534591,0.0162245,0.531422,-0.141306,0.167651,10.6341
20015922,0.84686,-0.00533645,0.0161675,0.531544,-0.208367,0.227527,10.6317
20028107,0.846748,-0.00537506,0.0161142,0.531723,-0.162861,0.215552,10.591
20049946,0.8467,-0.0053945,0.016116,0.531799,-0.162861,0.155676,10.6365
20062107,0.846639,-0.00524886,0.0161124,0.531898,-0.165256,0.193997,10.6748
20083922,0.84658,-0.00522257,0.0161062,0.531992,-0.222737,0.189207,10.567
20096111,0.84654,-0.00518824,0.0160802,0.532057,-0.114961,0.167651,10.6006
20118947,0.846438,-0.00515135,0.0160524,0.53222,-0.0981958,0.184417,10.6437
20131108,0.846333,-0.00515843,0.016059,0.532387,-0.146096,0.179626,10.6389
20152922,0.846247,-0.00512403,0.016038,0.532525,-0.131726,0.189207,10.555
20165117,0.846108,-0.0050501,0.0160248,0.532746,-0.165256,0.107776,10.5479
20186922,0.846025,-0.00502671,0.0160833,0.532877,-0.241897,0.213157,10.67
20208921,0.845938,-0.00490498,0.0160926,0.533015,-0.0910107,0.275427,10.7059
20221108,0.845842,-0.00492258,0.0161143,0.533167,-0.191602,0.182021,10.6604
20242921,0.845755,-0.00489763,0.0160927,0.533307,-0.153281,0.150886,10.555
20255113,0.845684,-0.00491735,0.0161028,0.533418,-0.146096,0.184417,10.6245
20276921,0.845588,-0.0049117,0.016166,0.533568,-0.215552,0.198787,10.6676
20289113,0.845505,-0.0047982,0.0161134,0.533703,-0.316143,0.217947,10.555
20310922,0.845486,-0.004675,0.0160975,0.533735,-0.0694556,0.165256,10.6676
20323111,0.845411,-0.00464445,0.0160798,0.533855,-0.155676,0.189207,10.658
20344929,0.84535,-0.00462208,0.0160344,0.533952,-0.0550855,0.0742456,10.5982
20357113,0.845206,-0.00448214,0.0161077,0.534179,-0.165256,0.150886,10.5071
20378921,0.845068,-0.00423579,0.0161889,0.534397,-0.196392,0.160466,10.6125
20400921,0.844974,-0.00412334,0.0161989,0.534546,-0.205972,0.107776,10.67
20413106,0.84493,-0.0076611,0.0167901,0.534558,-0.292192,-0.251477,9.50842
20434922,0.8448,-0.00557785,0.0169055,0.534785,0.0934058,1.93997,9.16354
20447107,0.844447,-0.00149725,0.0204381,0.535248,-0.986748,0.117356,11.0484
20468946,0.844323,-0.000567473,0.0198027,0.535468,-0.780776,-0.754431,12.962
20481107,0.844415,-0.00215389,0.0173794,0.535403,0.0622705,0.447869,10.6006
20502922,0.844179,-0.00115048,0.017744,0.535766,0.0622705,1.11368,9.86528
20515111,0.843949,0.000280115,0.0172572,0.536146,1.19272,0.65863,11.2304
20537946,0.84384,-0.000397239,0.0164933,0.536342,-0.522114,-0.172441,10.8856
20550108,0.843573,-0.00150945,0.0174843,0.536728,-0.852627,-0.0838257,10.2102
20571922,0.843531,-0.000550207,0.0171852,0.536805,0.402363,0.371228,10.4497
20584109,0.843622,-4.95389e-05,0.0168935,0.536671,-0.555645,0.203577,10.9215
20606921,0.843458,-0.00104624,0.0173818,0.536913,-0.304167,-0.0766406,10.5431
20619107,0.843342,-0.000503684,0.0169966,0.537109,0.725691,-0.160466,10.4281
20640921,0.843198,-6.9527e-05,0.017019,0.537334,-0.632285,0.0814307,10.7155
20653108,0.842939,-0.000519535,0.0172872,0.537732,-0.191602,0.0646655,10.7945
20674921,0.842885,-0.000367623,0.0169071,0.537827,0.246687,-0.162861,10.5119
20696921,0.842743,4.65848e-05,0.0169799,0.538048,-0.656235,-0.146096,10.6437
20709113,0.84257,-5.33052e-05,0.0170873,0.538315,-0.0431104,-0.0886157,10.864
20730922,0.842519,-0.000160446,0.0167903,0.538405,0.179626,-0.186812,10.5574
20743111,0.842399,0.000108303,0.0169206,0.538588,-0.450264,-0.102986,10.6269
20764932,0.842206,3.43202e-05,0.0170047,0.538887,-0.00718506,-0.0862207,10.7778
20777113,0.842173,-0.000134605,0.0168259,0.538946,0.122146,-0.265847,10.5095
20798921,0.842072,9.34629e-05,0.0168823,0.539102,-0.237107,-0.292192,10.5814
20811111,0.841905,0.000130001,0.0168527,0.539363,0.170046,-0.215552,10.8017
20832946,0.841702,-0.00011352,0.0167432,0.539683,0.129331,-0.167651,10.6461
20845112,0.841506,-0.000295563,0.0166914,0.53999,-0.193997,-0.378413,10.5383
20866922,0.841256,-9.6973e-05,0.0165537,0.540384,-0.0934058,-0.347278,10.4856
20889946,0.840997,0.00012286,0.0166599,0.540783,-0.0526904,-0.299377,10.7706
20902107,0.840771,-8.70386e-05,0.0165487,0.541138,-0.0718506,-0.285007,10.7562
20923922,0.84052,-0.000285805,0.0162912,0.541535,0.129331,-0.263452,10.5
20936111,0.840176,-6.76466e-05,0.0163338,0.542068,0.0287402,-0.308958,10.6964
20958922,0.839874,-0.000477336,0.0161312,0.542542,-0.0910107,-0.273032,10.6748
20971109,0.839491,-0.000596545,0.0160796,0.543136,-0.0670606,-0.323328,10.3922
20992921,0.839165,-0.00029525,0.0159748,0.543642,-0.205972,-0.378413,10.7826
21005124,0.838863,-0.00108371,0.0158761,0.544109,0.174836,-0.280217,10.6077
21027922,0.838523,-0.000314118,0.0160465,0.54463,-0.256267,-0.117356,10.4018
21040107,0.838258,0.000527537,0.0159239,0.545042,0.64426,1.94236,10.8784
21061921,0.837822,0.00159984,0.0158521,0.545711,-0.170046,-0.0359253,10.8281
21074106,0.837239,0.00264126,0.0142048,0.546646,0.63947,-0.455054,10.6269
21095922,0.836877,0.00280973,0.0142053,0.5472,-1.23823,-0.570015,10.3203
21108107,0.836421,0.00165377,0.0159978,0.547852,-0.627495,0.268242,10.6796
21129962,0.836069,0.00132194,0.0155165,0.548404,0.63468,0.122146,10.5359
21142107,0.835878,0.0012963,0.0149331,0.548711,-0.392783,-0.179626,10.6269
21163921,0.835352,5.92982e-05,0.0160459,0.549481,-0.258662,-0.117356,10.5814
21185944,0.83488,0.000875426,0.0157103,0.550207,0.744851,-0.0550855,10.6269
21198113,0.834412,0.000863001,0.0154917,0.550923,-0.193997,-0.0622705,11.0796
21219921,0.833928,-0.000677754,0.0156664,0.55165,-0.328118,-0.246687,9.96348
21232111,0.833442,0.00113841,0.0161363,0.55237,-1.24302,-0.0431104,9.88923
21253951,0.833,0.00266596,0.0166301,0.553017,-0.0191602,0.349673,12.119
21266112,0.832922,-0.000214593,0.0159325,0.55316,0.0215552,0.320933,11.0053
21287921,0.832625,-8.61967e-05,0.0157568,0.553614,-0.399968,0.0742456,9.07253
21300111,0.832086,0.00233999,0.0161466,0.554407,0.165256,0.785566,11.5897
21321921,0.831703,-0.00140889,0.0159763,0.554989,0.785566,0.229922,10.8688
21334113,0.831194,-0.000424731,0.0153763,0.55577,0.122146,-0.287402,9.3743
21355921,0.830534,0.00224595,0.0160463,0.556732,-0.160466,0.469424,11.2999
21378936,0.830062,-0.000513605,0.0163937,0.557429,0.0766406,0.433499,11.8531
21391105,0.829741,-0.00269024,0.0157459,0.557919,0.196392,0.232317,8.46898
21412922,0.829005,0.000599326,0.0169406,0.558984,0.237107,-0.0526904,9.70002
21425121,0.828346,0.00280317,0.0171949,0.559946,0.0886157,0.141306,12.871
21447921,0.827884,-0.00272931,0.017491,0.56062,-1.13763,0.0550855,10.4928
21460107,0.827109,-0.00284708,0.0173218,0.561767,-0.486189,-0.213157,8.4618
21481921,0.826414,0.00268204,0.0177416,0.562777,-0.790356,0.593965,11.7118
21494108,0.826202,-0.00150097,0.0168512,0.56312,0.395178,0.138911,11.9298
21515922,0.825847,-0.0052177,0.0164528,0.56363,-0.0646655,-0.814307,8.17679
21528108,0.825294,-0.000610416,0.016878,0.564451,-1.35798,-0.313748,9.26413
21549946,0.824803,-0.000880746,0.0193354,0.565089,-0.905317,0.902922,14.2601
21562107,0.825053,-0.00739684,0.0166207,0.564762,0.261057,-0.124541,10.1383
21583922,0.824906,-0.00429272,0.0170987,0.564995,-0.234712,-0.670605,8.34444
21596111,0.824801,-0.00230877,0.0188634,0.565104,-1.00351,0.0359253,12.5788
21618939,0.824767,-0.00574491,0.018408,0.565144,0.0119751,-0.268242,10.5982
21631108,0.824775,-0.00504979,0.0181344,0.565148,0.845442,-0.00239502,10.2461
21652922,0.8248,-0.00513445,0.0173008,0.565137,-0.699346,-0.210762,11.1538
21665410,0.824522,-0.00613009,0.0186326,0.56549,0.378413,-0.519719,9.94911
21688921,0.824362,-0.00424732,0.0191562,0.565723,0.517324,0.419128,10.3658
21701107,0.824152,-0.00367041,0.0178937,0.566074,-1.59748,0.0910107,12.4878
21722921,0.823917,-0.0085327,0.0182623,0.566352,0.275427,-0.122146,9.58985
21735107,0.823484,-0.00784034,0.0193219,0.566956,-0.718506,0.0287402,9.02942
21756922,0.823189,-0.00351713,0.0181876,0.567466,0.469424,0.0718506,11.9274
21778921,0.823051,-0.00805764,0.0178703,0.56763,-0.150886,0.550855,12.5381
21791112,0.822812,-0.011059,0.017243,0.567944,0.866997,-0.771196,7.51577
21812922,0.822257,-0.00412691,0.018238,0.56881,-0.0934058,-0.474214,10.658
21825111,0.821776,-0.00673452,0.0191896,0.569447,-0.680186,0.771196,12.5956
21846947,0.821507,-0.0104479,0.0184022,0.569805,-0.0550855,-0.193997,8.76597
21859114,0.820951,-0.00651143,0.0185429,0.57066,-0.174836,-0.332908,9.91318
21880921,0.820425,-0.0069068,0.0197937,0.571369,0.792751,0.455054,12.8902
21893111,0.82034,-0.0143373,0.0193079,0.57137,0.232317,-0.105381,10.9742
21914950,0.81987,-0.0140467,0.0189967,0.572062,-1.59269,-1.26697,7.51577
21927111,0.819228,-0.00818884,0.0232542,0.572937,0.141306,-0.186812,12.3321
21948922,0.81922,-0.0120741,0.0233427,0.572877,-0.129331,0.574805,11.4675
21971946,0.819003,-0.0126945,0.0221466,0.573221,-2.05014,-0.402363,8.10015
21984107,0.818461,-0.00876124,0.023502,0.574015,-0.342488,0.670605,11.4556
22005922,0.818386,-0.0102184,0.0235379,0.574096,1.42743,0.119751,13.4386
22018111,0.818411,-0.0123658,0.0213059,0.574105,-0.229922,-1.1544,7.06071
22039921,0.817801,0.00110106,0.0240281,0.574998,-1.71723,-0.265847,10.5143
22052109,0.817437,-0.00275839,0.0224991,0.575571,-0.280217,0.986748,12.6076
22073921,0.816997,-0.0125495,0.0218113,0.576092,2.03098,0.426313,9.08211
22086138,0.816765,-0.00328879,0.0201951,0.576607,-1.86812,0.0718506,6.33023
22108922,0.816537,-0.00684138,0.0177224,0.576981,-0.833467,1.74118,16.157
22121107,0.8168,-0.0141667,0.0135687,0.576587,0.141306,-0.332908,9.73355
22142921,0.816645,-0.0146397,0.018658,0.576653,-0.64426,-0.385598,5.15907
22155106,0.816407,-0.00714811,0.0225251,0.576993,2.26329,0.364043,14.7655
22176922,0.816129,-0.0134997,0.0208248,0.577336,-2.23695,1.70525,12.1669
22189108,0.815813,-0.0172742,0.0219312,0.577641,0.890947,-0.637075,8.25822
22210946,0.815442,-0.0109071,0.0218341,0.578324,0.696951,0.423918,11.3143
22232921,0.814688,-0.0158743,0.0253471,0.579128,-0.323328,0.172441,9.59704
22245113,0.813771,-0.019154,0.0297404,0.580108,-0.64426,-0.0335303,9.30005
22266946,0.812965,-0.0145163,0.0302374,0.581346,1.16877,0.696951,9.86528
22279112,0.812108,-0.0123252,0.0343489,0.582365,-0.531694,1.1065,15.3283
22300922,0.811624,-0.0204341,0.0307648,0.583011,-1.46575,1.08255,11.1706
22313111,0.810838,-0.0205417,0.0307864,0.5841,0.148491,-0.294587,6.42843
22334950,0.809719,-0.0169493,0.0382978,0.585321,1.06099,0.730481,15.6708
22347111,0.80973,-0.0225723,0.0318618,0.585502,-0.227527,1.18074,12.4926
22368922,0.809243,-0.0228841,0.0311507,0.586201,-0.100591,-1.00112,5.60693
22381112,0.807934,-0.0156703,0.0401412,0.587695,-0.950823,0.217947,15.3451
22402921,0.807247,-0.020827,0.0376716,0.588641,-1.00591,2.13875,11.8939
22424922,0.806984,-0.0257303,0.0360847,0.588908,0.56283,0.136516,5.76501
22437108,0.806428,-0.0137734,0.0382876,0.58993,1.18314,0.392783,13.1177
22459921,0.805934,-0.0215212,0.0412182,0.590177,-1.46575,2.05732,11.0245
22472107,0.805454,-0.0289305,0.041122,0.590522,-0.330513,-0.57241,9.16593
22493921,0.805336,-0.0191327,0.0395385,0.591189,1.13284,-0.0239502,9.35754
22506125,0.805031,-0.0250559,0.0429396,0.591146,-1.31966,-0.512534,9.13959
22528923,0.804585,-0.022707,0.046716,0.591561,-0.213157,-0.0455054,12.1861
22541107,0.804587,-0.0263576,0.045112,0.591531,-0.852627,0.941243,7.74569
22562921,0.804333,-0.0179837,0.0468757,0.592054,0.495769,-0.433499,12.0591
22575107,0.80446,-0.0247932,0.0443147,0.591832,0.191602,1.69567,12.7561
22596922,0.804023,-0.0345436,0.0433188,0.592011,0.0526904,-1.06099,6.22485
22609108,0.803834,-0.0203897,0.0435804,0.592905,0.450264,-0.61552,9.41262
22630946,0.803366,-0.0266176,0.0433971,0.593305,-0.443079,0.910107,11.846
22643107,0.803093,-0.0309873,0.0428678,0.593501,1.26697,-1.83698,9.34796
22664922,0.802638,-0.0261237,0.0426031,0.59437,-2.61536,0.0838257,5.83925
22686946,0.802274,-0.0252569,0.0453826,0.594693,-0.0886157,1.51126,15.6301
22699112,0.802189,-0.0271328,0.0389973,0.595177,1.24062,0.0814307,11.7214
22720922,0.801763,-0.0334909,0.0427304,0.595171,-1.24062,-0.0958008,9.01984
22733111,0.801155,-0.0322412,0.0435048,0.596002,-0.902922,0.287402,8.48335
22754950,0.801053,-0.0249632,0.0441727,0.596439,1.7316,1.14721,12.8207
22767111,0.801343,-0.0302035,0.0409143,0.59604,-1.0083,0.773591,12.5621
22788922,0.800649,-0.0341727,0.0420309,0.59668,-0.627495,-1.17356,5.94224
22801112,0.800293,-0.0240584,0.0430641,0.597576,0.900527,0.467029,10.9694
22822921,0.799826,-0.0274909,0.0414269,0.59817,-1.22625,2.09325,12.3561
22835113,0.799081,-0.0361617,0.0411388,0.598723,-0.555645,0.146096,9.4222
22856921,0.798757,-0.0285469,0.0404489,0.599613,0.764011,-0.766406,6.59847
22869410,0.798753,-0.0279918,0.042166,0.599526,0.337698,2.61057,16.6001
22891922,0.79833,-0.0298201,0.03294,0.600579,0.141306,-0.261057,11.2424
22904111,0.797559,-0.0303038,0.0377818,0.601294,-0.524509,0.210762,7.69779
22925944,0.797256,-0.0318258,0.0380015,0.601602,0.409548,1.26457,11.8124
22948922,0.796986,-0.027164,0.0344044,0.602405,-1.17356,0.186812,9.24497
22961107,0.796569,-0.0294781,0.038276,0.602614,-0.311353,0.898132,12.1597
22982921,0.796452,-0.0309696,0.0353987,0.60287,0.191602,0.356858,10.1886
22995107,0.79617,-0.0303139,0.0353175,0.60328,-1.28134,0.63947,8.87374
23016922,0.795675,-0.0298348,0.0370167,0.603855,0.450264,0.780776,12.8112
23029107,0.7956,-0.0338442,0.0361659,0.603794,0.320933,0.675396,9.73355
23050922,0.795387,-0.0316314,0.0376639,0.604103,-0.802332,-0.00718506,8.88332
23063105,0.795129,-0.0297852,0.0382801,0.604497,0.0407153,0.984353,12.495
23084921,0.79503,-0.0331427,0.0372375,0.604519,-0.304167,0.541274,10.476
23097107,0.79497,-0.0302273,0.0373703,0.604741,-0.282612,0.165256,8.39713
23119948,0.79473,-0.0293942,0.0394124,0.604969,-1.61664,1.8274,15.5942
23132107,0.794865,-0.0349291,0.0316062,0.604956,0.993933,-0.0455054,9.51561
23153922,0.794499,-0.0342732,0.0341385,0.605336,-0.143701,-0.467029,6.4907
23166126,0.793797,-0.0286898,0.0377637,0.606331,0.989143,1.17116,14.2122
23188922,0.793349,-0.0330886,0.0358331,0.60681,-0.459844,1.40827,12.3729
23201107,0.792816,-0.0361133,0.0347476,0.607397,0.414338,-0.878972,7.67623
23222921,0.792152,-0.0290366,0.0366563,0.60853,0.265847,-0.0742456,10.9574
23244921,0.791426,-0.0296952,0.0374584,0.609393,-0.280217,1.14721,12.6387
23257113,0.790739,-0.0350676,0.0360684,0.610083,0.404758,0.55804,9.58746
23278921,0.790033,-0.0278989,0.0350075,0.611428,-0.193997,-0.387993,8.88093
23291111,0.789465,-0.0283716,0.0348605,0.612148,-0.902922,0.799937,13.0794
23312922,0.788714,-0.030116,0.0327861,0.613147,0.517324,0.167651,9.96348
23325111,0.787995,-0.0285171,0.0338091,0.614091,-0.936453,0.593965,9.87246
23346946,0.787252,-0.0290996,0.033758,0.615018,-0.0790356,0.55325,10.9718
23359114,0.786645,-0.0288623,0.033188,0.615836,0.584385,0.486189,10.8233
23380921,0.786054,-0.0299856,0.0333998,0.616527,-0.790356,0.356858,11.1011
23393111,0.785426,-0.0323314,0.0334889,0.617202,-0.589175,-0.261057,9.09408
23414950,0.784917,-0.0297115,0.0349753,0.617899,-0.251477,0.220342,9.82935
23436921,0.784522,-0.0291477,0.0350242,0.618424,-0.500559,1.04423,12.3657
23449109,0.784098,-0.0315871,0.0339871,0.6189,0.289797,0.261057,10.8113
23471946,0.783673,-0.0323848,0.0344742,0.619371,0.670605,-0.0622705,9.29766
23484107,0.783142,-0.0293489,0.0350703,0.620159,-0.481399,0.337698,11.6136
23505922,0.782561,-0.0316783,0.0351392,0.620774,-0.414338,0.603545,11.4604
23518111,0.78219,-0.03419,0.0350467,0.621113,-0.0143701,0.213157,9.14198
23539921,0.781848,-0.0308728,0.0350519,0.621717,-1.47294,0.493374,9.83414
23552109,0.781541,-0.0290093,0.0350453,0.622192,-0.191602,0.910107,12.5238
23573921,0.781408,-0.0327789,0.0338043,0.622241,0.550855,0.433499,11.9873
23586119,0.781005,-0.0352818,0.0333078,0.622638,-0.0263452,0.0862207,7.12538
23607922,0.780474,-0.0288967,0.0352942,0.623522,0.356858,1.03944,10.6245
23620107,0.780151,-0.0303423,0.0345498,0.623899,0.340093,1.5879,13.3357
23641921,0.77971,-0.0341977,0.0333331,0.624317,-0.371228,0.0479004,9.77666
23663921,0.779248,-0.0323714,0.0340287,0.624953,-0.395178,0.114961,8.76118
23676113,0.778884,-0.029453,0.0345907,0.625521,-0.471819,1.22865,12.2675
23697921,0.778671,-0.0321156,0.0333569,0.625721,-0.608335,0.864602,11.1227
23710111,0.778341,-0.0325636,0.0332381,0.626116,-0.179626,0.304167,9.18749
23731922,0.778083,-0.0302939,0.0334899,0.626537,-0.0862207,0.840652,10.9646
23744111,0.777879,-0.0311465,0.0332013,0.626763,-0.150886,0.986748,11.3286
23765941,0.777639,-0.0322687,0.0330056,0.627015,-0.201182,0.58678,10.1144
23778112,0.777414,-0.0314082,0.0332212,0.627326,-0.148491,0.526904,9.88444
23799921,0.777304,-0.0302344,0.0335232,0.627504,-0.0910107,0.926873,10.9885
23812111,0.777166,-0.0306524,0.0330977,0.627676,-0.0550855,0.902922,11.2688
23833946,0.776929,-0.0317198,0.0328716,0.627929,0.0502954,0.651445,10.1575
23855921,0.776645,-0.0305193,0.0332855,0.628317,0.340093,0.699346,10.2437
23868107,0.776342,-0.0298366,0.0333801,0.62872,0.0167651,0.905317,11.1227
23890946,0.7759,-0.0305386,0.0332495,0.629238,0.0119751,0.809517,10.6029
23903107,0.775397,-0.0301734,0.0333592,0.62987,-0.138911,0.687371,10.3419
23924922,0.774851,-0.0295234,0.033447,0.630568,-0.268242,0.790356,10.9095
23937111,0.774358,-0.0300135,0.0330973,0.631168,-0.203577,0.668211,10.7419
23959929,0.773843,-0.0299283,0.032921,0.631813,-0.174836,0.637075,10.2341
23972108,0.773258,-0.0290732,0.0331095,0.632558,0.134121,0.852627,10.6987
23993922,0.772645,-0.02917,0.033053,0.633306,-0.0431104,0.771196,10.8281
24006125,0.772045,-0.0291791,0.0328524,0.634047,-0.287402,0.689766,10.3347
24028922,0.771531,-0.0285608,0.0330669,0.634689,-0.328118,0.641865,10.4976
24041107,0.77109,-0.0282307,0.0329917,0.635244,-0.186812,0.728086,10.8281
24062921,0.770659,-0.0285315,0.0328404,0.635762,-0.0670606,0.62989,10.6101
24075106,0.77026,-0.0283283,0.0328233,0.636255,0.0143701,0.60115,10.4736
24096922,0.76986,-0.0278582,0.0329054,0.636755,-0.0934058,0.589175,10.7179
24109108,0.769459,-0.0279426,0.0328771,0.637237,-0.227527,0.62989,10.6676
24130946,0.769016,-0.0279336,0.0328417,0.637774,-0.301772,0.514929,10.4185
24143107,0.768603,-0.0274875,0.0327705,0.638295,-0.117356,0.526904,10.6029
24164922,0.768134,-0.0272772,0.0326764,0.638873,-0.0934058,0.526904,10.7706
24186946,0.767632,-0.0272928,0.0325059,0.639484,-0.0910107,0.361648,10.6508
24199112,0.767149,-0.0270378,0.032416,0.640078,-0.0838257,0.409548,10.6029
24220922,0.766706,-0.0269353,0.0324266,0.640613,-0.220342,0.474214,10.6365
24233111,0.766249,-0.0269052,0.0323603,0.641164,-0.198787,0.488584,10.6006
24254950,0.765798,-0.0266901,0.0322655,0.641716,-0.134121,0.361648,10.5431
24267111,0.76536,-0.0265996,0.0321594,0.642248,-0.124541,0.160466,10.8257
24288922,0.764944,-0.0268305,0.0320226,0.642741,-0.150886,0.229922,10.5359
24301112,0.764505,-0.0266669,0.0319774,0.643272,-0.208367,0.237107,10.5407
24322921,0.764116,-0.0264973,0.0319665,0.643742,-0.143701,0.220342,10.7203
24335113,0.763702,-0.0267185,0.031831,0.64423,-0.222737,0.148491,10.591
24356921,0.763324,-0.0265291,0.031786,0.644688,-0.210762,0.217947,10.5047
24379921,0.762955,-0.0262393,0.0317693,0.645137,-0.146096,0.270637,10.7395
24392107,0.762581,-0.02636,0.0316377,0.64558,-0.143701,0.244292,10.6748
24413921,0.76218,-0.0262697,0.0315393,0.646063,-0.117356,0.167651,10.5335
24426120,0.761787,-0.0259899,0.0315264,0.646538,-0.126936,0.246687,10.6197
24448923,0.761421,-0.0259227,0.0314021,0.646977,-0.208367,0.203577,10.6748
24461107,0.761025,-0.0259588,0.0313476,0.647444,-0.246687,0.265847,10.6029
24482921,0.760673,-0.0257832,0.0312812,0.647869,-0.155676,0.225132,10.555
24495107,0.760312,-0.0256288,0.0312201,0.648301,-0.107776,0.143701,10.6437
24516921,0.759908,-0.02553,0.0311334,0.648782,-0.124541,0.244292,10.6197
24529105,0.759487,-0.0254328,0.0310492,0.649283,-0.136516,0.251477,10.6149
24550964,0.759059,-0.0252148,0.0309877,0.649795,-0.167651,0.227527,10.6125
24563107,0.758642,-0.0251699,0.0309212,0.650286,-0.105381,0.261057,10.6461
24584922,0.758256,-0.0251678,0.0307908,0.650743,-0.138911,0.205972,10.6197
24597111,0.757859,-0.0250906,0.0307097,0.651212,-0.203577,0.174836,10.5838
24619936,0.757439,-0.0249565,0.0306629,0.651708,-0.162861,0.167651,10.6269
24632108,0.757009,-0.0248731,0.0305762,0.652215,-0.158071,0.191602,10.6173
24653922,0.75657,-0.0247824,0.0304965,0.652731,-0.153281,0.246687,10.555
24675946,0.756121,-0.0245931,0.0304635,0.65326,-0.122146,0.153281,10.694
24688111,0.755697,-0.0245377,0.030332,0.653758,-0.0886157,0.253872,10.6676
24709922,0.755361,-0.0246458,0.030236,0.654146,-0.193997,0.165256,10.5407
24722112,0.755026,-0.0244218,0.030134,0.654546,-0.148491,0.150886,10.5622
24743921,0.754624,-0.0242263,0.0300989,0.655018,-0.126936,0.273032,10.67
24756113,0.754211,-0.0242718,0.0300106,0.655497,-0.203577,0.244292,10.6245
24777921,0.753803,-0.024229,0.0299126,0.655972,-0.100591,0.225132,10.5814
24790111,0.753436,-0.0241386,0.0298345,0.6564,-0.148491,0.227527,10.6437
24811921,0.753041,-0.0240517,0.0297611,0.65686,-0.177231,0.237107,10.6556
24824111,0.752636,-0.0240228,0.0296461,0.657331,-0.0766406,0.222737,10.6077
24845938,0.752176,-0.0238583,0.0295444,0.657868,-0.141306,0.222737,10.579
24867922,0.751732,-0.0237733,0.029462,0.658382,-0.138911,0.213157,10.6508
24880107,0.751288,-0.0237647,0.0293565,0.658893,-0.126936,0.215552,10.5958
24901921,0.750848,-0.0236869,0.0292761,0.659401,-0.162861,0.189207,10.5934
24914107,0.750442,-0.0235433,0.0292293,0.65987,-0.227527,0.210762,10.6101
24935922,0.750075,-0.023475,0.0291595,0.660292,-0.234712,0.167651,10.6221
24948107,0.749663,-0.0233968,0.0290697,0.660767,-0.114961,0.150886,10.5527
24969946,0.749278,-0.0232215,0.028983,0.661213,-0.0981958,0.102986,10.5982
24982107,0.748843,-0.0231569,0.0288131,0.661716,-0.198787,-0.0431104,10.5958
25003922,0.748418,-0.0230094,0.0287195,0.662206,-0.203577,-0.131726,10.5359
25016111,0.748003,-0.0228041,0.0286606,0.662684,-0.239502,-0.273032,10.6461
25037921,0.747569,-0.0226757,0.0284305,0.663188,-0.222737,-0.323328,10.6964
25059921,0.747068,-0.0227749,0.028308,0.663754,-0.160466,-0.423918,10.579
25072111,0.746663,-0.022559,0.0282525,0.664219,-0.102986,-0.57241,10.579
25093946,0.746369,-0.0223342,0.0282016,0.66456,-0.186812,-0.495769,10.6724
25106112,0.746092,-0.0223757,0.0281988,0.664869,-0.332908,-0.505349,10.7419
25127922,0.745844,-0.0221488,0.0281812,0.665155,0.0287402,-0.713716,10.7179
25140111,0.745615,-0.0219614,0.0279088,0.66543,-0.172441,-0.675396,10.7011
25161921,0.745108,-0.0219593,0.0281333,0.665989,0.205972,0.0550855,10.5814
25174113,0.744787,-0.0216404,0.0279586,0.666365,-0.00958008,-0.785566,10.9119
25195921,0.744397,-0.0221065,0.0274437,0.666807,-0.287402,-0.617915,10.6796
25208143,0.743944,-0.022174,0.0272598,0.667317,-0.263452,-0.989143,10.3778
25229921,0.74358,-0.0219395,0.0269855,0.667742,0.0191602,-0.66342,10.5215
25251922,0.743173,-0.0218246,0.0267868,0.668207,-0.0335303,-0.661025,10.8975
25264113,0.742789,-0.0223572,0.0267396,0.668618,-0.186812,-0.507744,10.4425
25285921,0.7425,-0.0224496,0.0263212,0.668952,-0.0287402,-0.534089,11.2257
25298109,0.742159,-0.024083,0.0263703,0.669271,-0.0934058,-0.390388,10.1527
25319921,0.741764,-0.024243,0.0269232,0.669682,-0.538879,-0.325723,10.7514
25332108,0.741464,-0.0239984,0.0260799,0.670056,0.452659,-0.546064,11.0125
25353922,0.741234,-0.025391,0.0261758,0.670255,-0.402363,-1.11368,10.4712
25366108,0.740755,-0.0245661,0.0266144,0.670798,0.241897,-0.900527,10.0856
25387968,0.74039,-0.0227258,0.0264971,0.67127,-0.107776,-0.428709,11.7981
25400107,0.739948,-0.0249401,0.025719,0.67171,-0.795147,-0.58199,10.1623
25421922,0.739423,-0.0241621,0.0258867,0.672309,0.131726,-0.948428,10.0832
25443925,0.739356,-0.0247621,0.0246033,0.672409,-0.840652,0.100591,10.8377
25456112,0.738861,-0.025364,0.0246656,0.672928,-1.37235,-0.60594,11.9968
25477922,0.73882,-0.0312007,0.0237622,0.67276,0.732876,-1.27415,8.57676
25490111,0.738899,-0.0228005,0.0259028,0.672933,0.311353,-1.03225,9.89881
25511946,0.738515,-0.021477,0.0264771,0.673375,-1.2981,-0.0287402,16.0061
25524111,0.73837,-0.0249272,0.0205146,0.673622,1.81782,-1.73639,9.39586
25545921,0.737942,-0.0211329,0.0209778,0.674207,0.845442,-1.04662,7.89178
25558111,0.737564,-0.0157697,0.0211285,0.674762,-1.24062,1.02507,13.2734
25579921,0.737465,-0.0226296,0.019331,0.674729,-1.04183,-0.217947,11.1275
25592113,0.737396,-0.0252091,0.0175627,0.674762,-0.256267,-2.77822,7.79598
25613921,0.736911,-0.021008,0.0206985,0.675347,-0.752036,-1.23583,8.90248
25626411,0.736211,-0.0212551,0.0250847,0.675952,-0.344883,0.967588,12.4878
25648921,0.736146,-0.0244569,0.0219497,0.676024,0.795147,0.114961,12.2316
25661111,0.735762,-0.0251091,0.0228208,0.676389,0.771196,-0.6251,8.28457
25682921,0.735461,-0.017286,0.0262745,0.676837,1.74597,0.435894,14.0374
25705921,0.735082,-0.0181336,0.0241914,0.677303,-2.36867,0.828677,13.6686
25718107,0.734621,-0.0216473,0.020999,0.677807,-1.18553,-1.76752,6.59608
25739921,0.73396,-0.0118681,0.0224722,0.678717,-1.30768,-1.00112,8.91206
25752108,0.733995,-0.0142059,0.0197199,0.678719,0.0790356,1.21428,12.3657
25773922,0.734012,-0.0212901,0.0185855,0.678548,0.126936,-0.519719,9.02942
25786108,0.733679,-0.0149966,0.019476,0.679052,-0.419128,-0.220342,7.91813
25807967,0.733875,-0.0162491,0.0192922,0.678816,0.811912,2.17947,15.6109
25820107,0.733943,-0.0234819,0.0151634,0.678635,-1.23823,-0.946033,8.32528
25841922,0.733299,-0.023714,0.0202629,0.67919,-0.668211,-0.421523,8.26301
25854111,0.733604,-0.0190368,0.0209248,0.678989,0.998723,0.395178,12.4591
25875946,0.733735,-0.0176137,0.02127,0.678875,-0.313748,-0.155676,11.1706
25888108,0.733661,-0.0197224,0.0216465,0.678885,0.335303,-0.579595,12.392
25909922,0.733318,-0.0167819,0.0189933,0.679413,0.890947,-0.5772,8.62705
25931946,0.732743,-0.0129603,0.0223917,0.680014,-0.146096,1.74118,11.2999
25944112,0.732674,-0.0135472,0.0178262,0.680212,-1.46096,1.3963,13.7428
25965922,0.732322,-0.0209813,0.0137192,0.680497,-0.993933,-0.878972,7.95884
25978112,0.731601,-0.0200815,0.0161151,0.681246,0.986748,-0.546064,7.57804
25999921,0.73117,-0.0157369,0.0195872,0.681732,0.694556,1.23104,12.2172
26012113,0.731059,-0.020708,0.0196689,0.681716,1.14961,-0.0407153,11.3909
26033921,0.730692,-0.0203839,0.0205005,0.682095,-1.80105,-0.519719,8.51928
26046126,0.729704,-0.00890922,0.0234169,0.683304,1.13284,0.790356,13.5368
26067922,0.729525,-0.0154858,0.021476,0.683441,-1.56634,1.64777,12.4663
26080111,0.728799,-0.0139959,0.0158705,0.684401,-0.941243,-2.18186,7.94926
26101921,0.727916,-0.00974512,0.0183809,0.68535,1.56634,0.380808,9.5659
26123921,0.727409,-0.00933628,0.0180354,0.685904,0.766406,1.41546,15.3762
26136109,0.727058,-0.0120324,0.0141987,0.686324,0.773591,-0.833467,8.36121
26157921,0.725919,-0.00804604,0.0176456,0.687507,-2.22737,0.138911,9.67368
26170108,0.725352,-0.00682771,0.0154883,0.68817,-0.0981958,0.119751,12.8567
26191922,0.725053,-0.00460872,0.0132832,0.688549,0.881367,-2.24653,9.50363
26204108,0.724037,-0.00223664,0.0170636,0.689546,-1.00591,0.902922,9.67607
26225938,0.723081,0.00143201,0.0155214,0.690588,-1.32924,2.06451,11.8172
26238109,0.722849,-0.00220035,0.0108458,0.690918,0.320933,0.220342,14.2601
26259921,0.722599,-0.0057627,0.00670445,0.691211,1.00112,-0.725691,7.9301
26272107,0.721654,0.00462469,0.010386,0.69216,-1.91123,0.0718506,9.01505
26293946,0.720977,0.00319673,0.0065569,0.69292,-0.917293,3.21412,20.1998
26315921,0.720664,0.0031344,-0.0121864,0.69317,2.15791,-0.874182,7.56606
26328113,0.718946,0.0118262,-0.0027507,0.69496,-1.60945,-3.00575,3.99988
26349946,0.718277,0.0159454,-0.00310554,0.695567,-0.960403,3.9446,19.7687
26362111,0.718161,0.0158795,-0.0156639,0.695519,0.395178,0.59157,11.3694
26383922,0.717883,0.0084267,-0.0133866,0.695984,0.799937,-2.32556,5.93505
26396112,0.716751,0.0187667,-0.0119058,0.696975,0.58199,-0.541274,12.4375
26417921,0.716285,0.0194717,-0.00915978,0.697476,-1.39151,2.71835,13.9153
26430111,0.716827,0.010825,-0.0137449,0.697031,-1.28134,-0.0215552,9.07013
26451921,0.716246,0.0146376,-0.0155274,0.697521,-0.189207,-2.22018,7.05353
26464113,0.715262,0.0179696,-0.00624649,0.698597,-0.778381,1.87291,15.678
26485921,0.715681,0.0157912,-0.0121245,0.698144,-0.160466,1.32684,11.0867
26507921,0.715783,0.012997,-0.0119939,0.698099,0.361648,-0.244292,5.31474
26520107,0.715073,0.0169895,-0.00855647,0.69879,-0.756826,1.62143,11.8819
26542921,0.715055,0.019058,-0.0112915,0.698717,-1.10171,0.124541,11.6831
26555107,0.71468,0.0159936,-0.00963671,0.699203,0.608335,0.330513,15.2876
26576921,0.714949,0.00901069,-0.0142322,0.698974,1.73399,-0.526904,7.08227
26589108,0.713994,0.0159384,-0.0115535,0.699875,-0.910107,0.241897,6.11947
26610922,0.713592,0.0167257,-0.011802,0.700262,-2.4022,3.36979,20.7482
26623108,0.714176,0.00892717,-0.0236896,0.699509,0.170046,-0.512534,10.6006
26644923,0.714917,0.00146999,-0.0224845,0.698846,0.0359253,-3.59971,3.27658
26657108,0.713893,0.0222331,-0.0168103,0.6997,1.67651,-0.263452,13.0363
26678921,0.71363,0.0194847,-0.0129857,0.700131,-0.0742456,4.52898,14.047
26691111,0.714893,0.00888808,-0.0204464,0.698878,0.883762,0.641865,11.3837
26712946,0.714037,0.0209572,-0.0210616,0.699477,-0.64905,-2.6441,3.81067
26734921,0.714452,0.0210308,-0.0205895,0.699065,0.308958,2.19384,13.5105
26747113,0.713831,0.0229225,-0.0262878,0.699449,0.220342,0.352068,11.3981
26768946,0.713785,0.0172184,-0.0236587,0.699753,0.433499,0.308958,8.19356
26781111,0.712897,0.0203149,-0.0228884,0.700601,0.907712,-0.57241,11.6639
26802922,0.712494,0.0265903,-0.0220719,0.700827,-1.25499,0.0143701,9.51321
26815112,0.712332,0.0238298,-0.0188442,0.701184,-1.42025,1.08255,11.9418
26837944,0.711742,0.0260238,-0.0219731,0.701615,1.23823,-0.0550855,11.8029
26850112,0.71193,0.0293124,-0.0242773,0.701218,1.41067,0.546064,9.35275
26871922,0.711594,0.0283785,-0.0225923,0.701654,-1.48012,1.06818,11.7549
26884113,0.711232,0.0273368,-0.0258834,0.701948,0.373623,0.529299,10.7083
26905921,0.711405,0.0229155,-0.026398,0.701912,1.80345,0.768801,10.0114
26918113,0.711197,0.0187692,-0.0244336,0.702318,-0.948428,0.282612,10.4425
26939921,0.710871,0.0183979,-0.0240086,0.702672,0.244292,0.00718506,9.36712
26961921,0.710266,0.0230092,-0.0207064,0.703252,-0.57241,-0.0838257,12.2747
26974109,0.710451,0.0204192,-0.0215501,0.70312,-1.66454,0.483794,10.5407
26995921,0.710031,0.0196218,-0.0216637,0.703563,-0.778381,0.205972,7.98998
27008129,0.709088,0.0241341,-0.0196951,0.704432,0.232317,0.62031,11.2736
27029921,0.709348,0.021541,-0.0221548,0.704181,0.981958,1.18074,12.8135
27042109,0.709237,0.0188663,-0.0228667,0.704347,-0.0814307,-1.0586,9.67368
27064922,0.708589,0.0202079,-0.0209992,0.70502,-0.249082,-0.58199,8.40192
27077108,0.707657,0.0243514,-0.0183991,0.705896,1.62622,0.876577,11.9897
27098921,0.707537,0.0218195,-0.0193393,0.706075,-1.24302,0.560435,11.9585
27111111,0.707204,0.0181123,-0.0184863,0.706535,-0.280217,-0.524509,8.11931
27132946,0.706177,0.0316868,-0.0170622,0.70712,0.859812,-0.979563,10.4952
27145108,0.705449,0.0304437,-0.0175307,0.707889,-2.19144,2.01421,14.5883
27166922,0.705457,0.0259813,-0.0246984,0.707846,1.99266,-0.543669,9.51561
27179407,0.704158,0.0338385,-0.0232933,0.708854,0.6251,-0.574805,6.8763
27202921,0.703861,0.0334553,-0.0233923,0.709164,-0.696951,3.01054,15.9247
27215107,0.703625,0.0303787,-0.0331841,0.709146,0.112566,-0.325723,9.08211
27236921,0.702814,0.0301561,-0.0300725,0.710097,-0.517324,-1.0562,7.1158
27249108,0.701512,0.0324179,-0.022648,0.71156,0.677791,2.24174,17.2587
27270922,0.701543,0.0327482,-0.0315803,0.711174,-0.155676,1.14242,10.488
27292921,0.701436,0.0292417,-0.0296751,0.711514,-0.61073,0.131726,6.86911
27305114,0.70043,0.0328693,-0.0279031,0.712418,0.124541,0.804727,12.6603
27326921,0.700204,0.0339841,-0.0298619,0.712508,0.364043,1.27415,9.92755
27339108,0.699356,0.0365515,-0.0242422,0.713426,-1.20709,1.18553,13.7548
27360921,0.699384,0.0325139,-0.0302611,0.713365,-1.18314,1.83459,11.6041
27373111,0.699158,0.0301071,-0.0329336,0.713573,1.54479,0.493374,6.84276
27394922,0.698004,0.0382036,-0.0298377,0.714451,0.656235,1.07776,11.2017
27407111,0.697652,0.0354596,-0.0289425,0.714973,-1.26218,1.1041,11.5921
27428946,0.697688,0.0308508,-0.0281921,0.715182,0.00239502,0.673001,9.70721
27441111,0.697032,0.0375322,-0.028955,0.715472,0.335303,0.778381,8.80908
27462922,0.696742,0.0376466,-0.0272404,0.715815,-0.833467,1.14961,12.5309
27485951,0.696643,0.0341245,-0.0283913,0.716043,0.423918,1.22146,11.1011
27498108,0.696544,0.0339605,-0.0292808,0.716112,0.227527,0.519719,8.51449
27519921,0.695836,0.0375618,-0.0267578,0.716719,-0.337698,0.986748,11.0317
27532107,0.695482,0.0364335,-0.0258164,0.717155,0.251477,1.85135,12.4256
27553946,0.695613,0.0329695,-0.0285597,0.717091,0.0526904,0.723296,9.44376
27566107,0.694785,0.0366095,-0.027839,0.717745,-0.974773,0.677791,9.37909
27587922,0.694399,0.0364194,-0.0266774,0.718173,-0.359253,1.4921,11.9466
27600111,0.694455,0.0345754,-0.0279215,0.718162,0.0574805,0.874182,10.3203
27621921,0.694135,0.0363578,-0.0275011,0.7184,-0.373623,0.893342,9.68086
27634109,0.69377,0.0366156,-0.0262615,0.718786,0.352068,1.64777,11.8124
27655921,0.693844,0.0347425,-0.0271247,0.718775,0.744851,1.40588,11.0628
27668128,0.693567,0.0340191,-0.0273016,0.719071,-0.110171,0.661025,9.45573
27689921,0.692892,0.0353142,-0.0260612,0.719704,0.0383203,0.857417,10.8616
27711922,0.692637,0.0342079,-0.0262441,0.719996,-0.179626,1.16398,11.1011
27724113,0.692264,0.0336149,-0.0262587,0.720383,-0.641865,0.881367,9.64494
27745921,0.691699,0.0355166,-0.0254242,0.720864,-0.287402,1.04183,10.6796
27758113,0.691455,0.0349566,-0.0255806,0.721119,-0.229922,1.28613,11.5394
27779921,0.691422,0.0335438,-0.0260634,0.721201,-0.213157,0.888552,10.0042
27792111,0.691132,0.0349199,-0.025274,0.721442,-0.342488,0.969983,10.1599
27813922,0.691068,0.0352798,-0.0246709,0.721507,-0.189207,1.26457,11.3981
27826111,0.691316,0.0339748,-0.0250444,0.721319,-0.0598755,1.06818,10.5239
27847971,0.69132,0.0343382,-0.0247905,0.721307,-0.261057,0.811912,9.93952
27860112,0.691262,0.0351576,-0.0240165,0.721349,-0.0431104,1.02507,10.9526
27881922,0.691365,0.0344818,-0.0241353,0.721278,0.0143701,0.938848,10.9023
27904923,0.691442,0.0342743,-0.0241304,0.721215,-0.146096,0.689766,10.1431
27917108,0.691267,0.0352125,-0.0237039,0.721352,0.0814307,0.524509,10.749
27938921,0.691209,0.0342144,-0.0238968,0.721449,-0.00958008,0.395178,11.0412
27951111,0.691036,0.0335614,-0.0241629,0.721637,0.102986,0.126936,10.1
27972946,0.690791,0.0342696,-0.0237794,0.72185,-0.0431104,0.220342,10.4089
27985108,0.690545,0.0341619,-0.0237139,0.722093,-0.170046,0.191602,11.058
28006922,0.690324,0.0333398,-0.0238126,0.722339,0.0910107,0.136516,10.4928
28019108,0.690058,0.0334102,-0.0235887,0.722597,-0.198787,0.0742456,10.2676
28040921,0.689616,0.0341407,-0.0231084,0.723001,-0.328118,-0.0934058,10.8784
28053107,0.689461,0.0334868,-0.0227428,0.723191,0.364043,0.828677,10.6293
28074921,0.689293,0.0337328,-0.0232528,0.723323,-0.392783,-0.150886,10.6389
28087176,0.688992,0.0343631,-0.0236522,0.723567,-0.55804,-0.368833,10.4952
28108921,0.688702,0.0333193,-0.0232181,0.723907,0.58199,0.373623,10.7251
28130922,0.688454,0.0340386,-0.0242962,0.724073,0.55804,-0.0311353,10.3563
28143112,0.688068,0.0342954,-0.0239216,0.724441,-0.63468,0.0239502,10.4736
28164921,0.687565,0.0338301,-0.0233339,0.724959,0.251477,0.148491,10.967
28177113,0.687254,0.033779,-0.0238403,0.72524,0.241897,0.174836,10.4425
28198921,0.686818,0.0337683,-0.0234222,0.725667,-0.61073,0.129331,10.3323
28211111,0.686244,0.0338365,-0.022813,0.726225,-0.0502954,0.167651,10.8257
28232921,0.685834,0.0334918,-0.0229429,0.726625,0.107776,0.227527,10.694
28245111,0.685422,0.0333765,-0.022663,0.727027,-0.268242,0.155676,10.5287
28266959,0.684885,0.0335717,-0.0223311,0.727535,-0.136516,0.227527,10.7155
28279112,0.684469,0.0331063,-0.022241,0.727951,-0.0862207,0.275427,10.7706
28300921,0.684137,0.0329934,-0.0222022,0.728268,-0.0886157,0.0718506,10.5095
28322921,0.683735,0.03302,-0.0219258,0.728653,-0.308958,0.136516,10.5718
28335108,0.683404,0.0327133,-0.0216739,0.728985,-0.129331,0.234712,10.6604
28356922,0.683164,0.032706,-0.0216645,0.729211,-0.0670606,0.117356,10.5886
28369108,0.682949,0.0327403,-0.0213626,0.729419,-0.277822,0.234712,10.579
28390946,0.682644,0.0326479,-0.0211099,0.729716,-0.0455054,0.208367,10.6892
28403107,0.682391,0.0324863,-0.0210564,0.729962,-0.0455054,0.172441,10.591
28424922,0.682035,0.0324015,-0.0209378,0.730301,-0.0934058,0.0670606,10.4904
28437111,0.681633,0.0323863,-0.0208262,0.730681,-0.0455054,-0.0335303,10.5383
28459929,0.681228,0.0325614,-0.0205052,0.731059,-0.210762,0.0407153,10.5287
28472108,0.680921,0.0325747,-0.0201871,0.731354,-0.280217,0,10.6317
28493922,0.680587,0.0323889,-0.0201649,0.731673,-0.0311353,-0.162861,10.7083
28506119,0.680258,0.0319608,-0.0196666,0.732012,0.138911,-0.0407153,10.6628
28528921,0.679999,0.0321184,-0.0194576,0.732251,-0.172441,-0.354463,10.6772
28541107,0.67966,0.0321683,-0.019075,0.732573,-0.177231,-0.455054,10.785
28562921,0.679385,0.0316688,-0.0188484,0.732856,-0.0862207,-0.447869,10.7538
28575405,0.679207,0.0317597,-0.0189138,0.733015,0.0407153,-0.438289,10.5383
28598922,0.678949,0.0319125,-0.0186848,0.733253,-0.0383203,-0.402363,10.6652
28611108,0.67861,0.0316392,-0.0184225,0.733586,-0.0407153,-0.531694,10.749
28632922,0.67826,0.0315634,-0.0184088,0.733913,-0.0646655,-0.744851,10.567
28645107,0.677887,0.0317805,-0.0181171,0.734255,-0.205972,-0.63947,10.6652
28666921,0.677621,0.0316295,-0.0178217,0.734515,-0.0790356,-0.641865,10.8113
28688980,0.677366,0.0314857,-0.0178383,0.734756,0.134121,-0.723296,10.8137
28701111,0.677186,0.0308766,-0.0179624,0.734945,-0.136516,-0.740061,10.5431
28722922,0.676991,0.0308018,-0.0179221,0.735128,-0.0910107,-0.938848,10.3443
28735112,0.676714,0.030928,-0.0176981,0.735383,-0.0886157,-0.718506,10.7395
28757944,0.676539,0.030401,-0.017717,0.735565,-0.0359253,-0.694556,10.8377
28770112,0.676365,0.0298882,-0.0176324,0.735749,0.141306,-0.845442,10.3251
28791922,0.676115,0.0303134,-0.0175865,0.735963,-0.0143701,-0.761616,10.7419
28804113,0.675782,0.0303537,-0.0178596,0.73626,0.237107,-0.656235,11.1035
28825921,0.67551,0.0299035,-0.0179413,0.736526,0.0359253,-0.608335,10.888
28838113,0.675339,0.0284841,-0.0181486,0.736734,-0.64905,-0.732876,10.8688
28859921,0.675226,0.0276558,-0.0187912,0.736852,-0.570015,-1.09452,9.36233
28872111,0.674619,0.031337,-0.0169805,0.737305,0.182021,-0.62989,10.6892
28893922,0.674531,0.0300738,-0.017133,0.737434,0.0886157,0.179626,12.974
28915921,0.674634,0.0264257,-0.0194939,0.737422,-0.119751,-0.780776,8.92164
28928127,0.673847,0.0302449,-0.0175297,0.738043,0.143701,-0.922083,9.63536
28949921,0.673655,0.02931,-0.0175888,0.738255,-0.112566,-0.0191602,12.4303
28962109,0.673223,0.0291751,-0.0186205,0.738629,-0.397573,-0.898132,10.3754
28984924,0.672877,0.0275177,-0.0179436,0.739025,0.364043,-0.862207,9.90839
28997108,0.672241,0.0299217,-0.01835,0.7395,-0.728086,-0.716111,10.7227
29018921,0.671925,0.029068,-0.0187524,0.739811,-0.756826,-0.237107,9.99701
29031111,0.671214,0.0311406,-0.01827,0.740384,0.505349,-0.383203,12.3944
29052922,0.671291,0.0264831,-0.0215958,0.740406,0.404758,-0.196392,10.6796
29065107,0.670476,0.0267573,-0.020689,0.74116,0.373623,-1.33642,8.34444
29086921,0.669646,0.0299525,-0.0193066,0.741825,0.105381,0.0383203,11.652
29099107,0.669413,0.0246027,-0.0200207,0.742213,-1.70765,0.0598755,11.6041
29121921,0.668862,0.0219252,-0.0195995,0.742805,1.41067,-1.28613,9.59225
29134108,0.667937,0.0297881,-0.0170058,0.743427,0.608335,-1.17116,9.3264
29155921,0.666524,0.0317977,-0.0129009,0.744693,-1.17595,0.0838257,14.0015
29178936,0.665987,0.0314863,-0.0182147,0.745076,0.273032,-0.529299,11.3789
29191108,0.665208,0.0309965,-0.0208478,0.745723,-0.409548,-0.409548,7.98998
29212922,0.663968,0.0325227,-0.0208065,0.746764,-1.70525,-0.495769,11.9034
29225113,0.662956,0.0323376,-0.021943,0.747637,0.366438,-1.42264,11.0843
29246921,0.662186,0.0344898,-0.0187613,0.748311,0.938848,0.423918,7.47505
29259108,0.660771,0.0397587,-0.0170798,0.749339,0.0862207,2.62015,15.4912
29280921,0.660571,0.0334214,-0.0210717,0.749723,-1.60466,1.47533,10.179
29293111,0.659984,0.0302317,-0.0209659,0.750378,0.342488,-3.11592,8.96475
29314922,0.658733,0.0348973,-0.0183652,0.751343,-0.356858,-0.316143,9.01265
29327111,0.657517,0.0374734,-0.0148285,0.752361,-1.59508,1.53042,12.4495
29348946,0.656925,0.0397049,-0.0173439,0.75271,1.79147,0.380808,12.7656
29361111,0.656972,0.0362625,-0.0193834,0.752793,-2.17707,0.756826,8.87135
29382922,0.655778,0.0400145,-0.0198408,0.753632,-1.64298,0.00479004,9.05816
29395412,0.654734,0.0450809,-0.0175219,0.75431,2.28964,1.09452,12.519
29418946,0.655304,0.0415081,-0.0195675,0.75397,-0.215552,1.56395,10.8999
29431112,0.654907,0.0403792,-0.0233266,0.754269,-1.06578,-0.196392,10.8592
29452922,0.654115,0.0430109,-0.0241033,0.754786,2.80696,0.193997,10.4449
29465113,0.654167,0.0405429,-0.0258846,0.754819,-0.56283,-0.352068,10.8209
29486922,0.652995,0.0377973,-0.0241279,0.756034,-1.38672,0.0742456,6.25598
29508921,0.651619,0.0413656,-0.0212358,0.75712,-0.972378,0.613125,10.7754
29521107,0.651357,0.0392968,-0.0233105,0.757394,1.55197,1.44899,13.853
29542921,0.650859,0.0355046,-0.0243241,0.757978,0.682581,0.495769,10.6748
29555107,0.650066,0.0309897,-0.023262,0.758889,-1.152,0.675396,9.44615
29576921,0.649452,0.0330085,-0.0247838,0.759281,2.03577,-0.0143701,11.8268
29589107,0.649782,0.0290945,-0.0252026,0.759145,-1.78668,0.852627,12.1166
29610921,0.649153,0.0258425,-0.0247325,0.759816,-1.68609,-0.775986,8.33007
29623107,0.648302,0.0314461,-0.0225966,0.760398,0.895737,0.229922,9.74074
29644930,0.648562,0.0288226,-0.0226461,0.760278,-2.39981,0.843047,9.72876
29657111,0.648059,0.031888,-0.0235612,0.760557,0.227527,0.984353,11.1754
29678921,0.648163,0.0277696,-0.027811,0.760486,1.50407,2.31598,13.2399
29700921,0.64893,0.0173042,-0.0306239,0.760035,0.543669,-2.07648,7.12059
29713111,0.647345,0.0283571,-0.0240334,0.76129,-1.4921,-1.35798,6.13863
29734922,0.647991,0.024341,-0.0279565,0.760746,-1.71004,3.60929,16.8156
29747111,0.64893,0.0180894,-0.0381782,0.759674,0.452659,0.670605,9.9994
29768946,0.649481,0.0161242,-0.0344177,0.759427,-0.936453,-1.86812,4.53636
29781111,0.649106,0.0218779,-0.0271709,0.759897,1.18074,-0.998723,15.1128
29802922,0.648928,0.0230824,-0.0298705,0.759913,-0.749641,3.23567,12.0328
29815112,0.64979,0.018331,-0.0307217,0.759271,-0.182021,0.265847,9.59225
29837944,0.64887,0.0236591,-0.0277192,0.760026,0.5772,-0.65384,10.4089
29850112,0.649399,0.0230021,-0.0280781,0.759581,-0.778381,1.41785,10.9502
29871922,0.649416,0.0217601,-0.0297208,0.75954,-0.340093,1.24541,12.1334
29884113,0.649551,0.0192357,-0.0301989,0.759475,1.4442,0.198787,10.0569
29905921,0.650208,0.0197164,-0.0303993,0.758892,0.411943,-0.807122,8.45222
29927922,0.649914,0.0254901,-0.0267475,0.759109,-1.22146,0.895737,13.0435
29940108,0.650682,0.018876,-0.0267231,0.758645,-1.31008,2.0669,11.0053
29961921,0.651444,0.019274,-0.0280752,0.757932,0.821492,-1.24781,8.43785
29974109,0.651783,0.0262094,-0.0255952,0.75752,0.593965,0.385598,11.7454
29995921,0.652863,0.0208901,-0.0266267,0.75672,-1.34361,1.00112,11.4292
30008128,0.653704,0.0189638,-0.0268108,0.756037,-0.182021,-0.622705,9.28329
30029921,0.65443,0.0239918,-0.0264144,0.75528,0.0766406,-0.277822,8.6534
30042109,0.655319,0.0241194,-0.0245759,0.754567,-1.83219,0.960403,11.6065
30064926,0.656245,0.0232584,-0.0259169,0.753744,0.325723,1.19751,12.3872
30077108,0.657945,0.0188551,-0.0278896,0.752313,1.02028,0.433499,9.8078
30098921,0.658543,0.0224698,-0.0264585,0.751742,-0.59636,0.268242,10.0808
30111111,0.659768,0.021146,-0.0258703,0.750727,-0.150886,2.04056,14.6242
30132946,0.661637,0.0148012,-0.0335469,0.748927,-0.373623,-1.08973,8.42348
30154921,0.661895,0.0196521,-0.0301074,0.748734,-0.840652,-0.512534,5.5279
30167113,0.661818,0.0242509,-0.021639,0.74896,0.718506,1.43462,15.5582
30188946,0.66258,0.0236919,-0.0253082,0.748188,0.0862207,1.6837,13.2183
30201111,0.663604,0.0176198,-0.0267339,0.747398,0.579595,0.122146,7.53253
30222922,0.663018,0.0245162,-0.0244283,0.747803,0.459844,0.522114,10.5886
30235112,0.664,0.021224,-0.0259101,0.746982,-0.826282,1.06339,11.3382
30257944,0.66459,0.0179091,-0.025566,0.746556,-0.924478,-0.687371,9.84612
30270112,0.66509,0.0195803,-0.0248757,0.746092,0.179626,0.555645,9.71679
30291922,0.665799,0.0196593,-0.0235682,0.7455,0.110171,0.55325,11.3119
30304113,0.66641,0.0190769,-0.0232531,0.744979,-0.0407153,1.1041,12.3202
30325922,0.667384,0.0143685,-0.0242477,0.74418,0.0502954,0.361648,9.47489
30338113,0.667895,0.0180616,-0.0230558,0.743679,-0.00479004,-0.172441,9.68565
30359921,0.668758,0.0169969,-0.0227077,0.742939,-0.881367,0.843047,10.9119
30381921,0.669126,0.0174525,-0.0222021,0.742612,-0.146096,0.371228,10.6485
30394109,0.669647,0.0167029,-0.0225156,0.74215,1.03225,0.641865,12.0567
30415921,0.670316,0.0126362,-0.0231887,0.741606,-0.174836,-0.0694556,8.16003
30428128,0.669604,0.0206043,-0.0189229,0.742191,0.263452,0.280217,10.888
30449921,0.670376,0.0173422,-0.0224319,0.741479,0.328118,0.320933,12.2172
30462109,0.670816,0.0114572,-0.0231255,0.741175,-0.0143701,0.150886,8.35881
30484923,0.670304,0.0173992,-0.0221123,0.741553,-0.265847,0.536484,9.79822
30497108,0.670556,0.0148331,-0.022115,0.741381,-0.191602,0.60115,12.6675
30518921,0.670787,0.0108893,-0.0227667,0.741221,0.771196,0.0359253,9.38149
30531111,0.670588,0.0147095,-0.020807,0.741392,-1.61185,0.495769,9.77427
30552946,0.670442,0.0136084,-0.0196566,0.741576,-0.431104,0.991538,12.6794
30565108,0.670891,0.0104941,-0.0215269,0.741169,0.677791,0.172441,9.6138
30586922,0.670797,0.0131102,-0.0205108,0.741241,-1.3005,0.946033,9.0845
30599407,0.670525,0.0136539,-0.0183311,0.741534,-0.251477,1.18314,13.6422
30622921,0.670959,0.0112458,-0.0212201,0.741105,0.886157,0.869392,11.0125
30635107,0.671117,0.00988579,-0.0214265,0.740976,-0.490979,0.368833,7.9301
30656921,0.670581,0.0146504,-0.019763,0.741428,-0.122146,0.723296,11.6328
30669108,0.670952,0.0120485,-0.021358,0.741095,0.167651,0.878972,12.1477
30690921,0.671387,0.0090565,-0.0216943,0.740734,-0.112566,0.299377,8.63663
30712921,0.67105,0.0135547,-0.0202531,0.741011,-0.404758,0.780776,9.99222
30725113,0.670946,0.0137708,-0.0198514,0.741112,0.670605,1.19751,12.3369
30746923,0.671099,0.0112134,-0.021232,0.740979,0.380808,0.651445,10.8616
30759112,0.670699,0.0115207,-0.0216524,0.741324,-0.452659,0.483794,9.01984
30780921,0.669956,0.0131278,-0.0199419,0.742017,0.819097,1.02267,10.7802
30793111,0.669492,0.0129452,-0.0203232,0.742428,0.323328,1.33882,11.5633
30814921,0.66908,0.0113601,-0.0206824,0.742816,-1.01788,0.998723,9.79822
30827111,0.668377,0.0130544,-0.0196649,0.743448,0.131726,1.06339,10.2796
30848946,0.667996,0.0135434,-0.0196077,0.743783,0.0670606,1.41306,11.7573
30861111,0.66784,0.0109498,-0.0201586,0.743951,-0.598755,0.924478,10.27
30882922,0.667429,0.0120966,-0.019668,0.744315,-0.0502954,0.694556,9.68565
30905956,0.667177,0.0133691,-0.0188907,0.74454,-0.0550855,1.06339,11.1825
30918111,0.667152,0.0120729,-0.0189656,0.744582,-0.452659,0.941243,11.0077
30939921,0.667104,0.0116926,-0.0191509,0.744626,-0.296982,0.60594,9.91318
30952107,0.667123,0.0128573,-0.0185118,0.744607,-0.0934058,0.699346,10.5311
30973950,0.667306,0.0128507,-0.0182324,0.74445,-0.313748,0.969983,11.1897
30986107,0.667497,0.012062,-0.0182923,0.74429,-0.182021,0.761616,10.3395
31007922,0.667622,0.0127885,-0.0178118,0.744177,0.186812,0.737666,10.385
31020111,0.667524,0.0113068,-0.0173594,0.7443,-0.471819,-0.241897,10.9071
31041921,0.667809,0.0106116,-0.0165528,0.744073,0.443079,2.59141,9.99222
31054109,0.667987,0.00982804,-0.0154363,0.743948,0.443079,2.09325,10.9933
31075921,0.667901,0.0112309,-0.0177416,0.743954,-0.335303,-1.09931,10.7035
31088129,0.667818,0.0110451,-0.0169551,0.74405,0.323328,0.656235,10.9263
31109921,0.667813,0.0105983,-0.0158869,0.744084,-0.680186,1.70765,10.6125
31131922,0.667997,0.0116907,-0.0167249,0.743885,-0.193997,0.531694,10.1168
31144113,0.668261,0.0116841,-0.016534,0.743651,-0.102986,-0.378413,11.1322
31165922,0.668682,0.0104991,-0.0163575,0.743294,-0.740061,0.0838257,10.4928
31178113,0.669069,0.0103916,-0.01631,0.742949,-0.399968,0.241897,10.0856
31199921,0.669494,0.0114859,-0.0160021,0.742556,0.330513,0.0191602,10.9646
31212111,0.67013,0.0105928,-0.0158959,0.741998,-0.570015,0.167651,10.8185
31233922,0.670566,0.0103643,-0.0158856,0.741608,-0.155676,0.110171,10.3251
31246111,0.67107,0.0113278,-0.0157422,0.74114,0.373623,0.282612,10.749
31267967,0.671633,0.0106417,-0.0156085,0.740644,-0.443079,0.277822,10.8496
31280111,0.672062,0.0102959,-0.0157277,0.740256,0.0359253,0.0263452,10.2772
31301922,0.672438,0.011065,-0.0155123,0.739908,0.179626,0.148491,10.5598
31324927,0.672833,0.010836,-0.0152132,0.739558,-0.270637,0.313748,10.9143
31337108,0.673216,0.0104749,-0.0153385,0.739213,0.00958008,0.201182,10.5167
31358921,0.673559,0.0107191,-0.0151724,0.7389,-0.134121,0.0670606,10.4233
31371107,0.673884,0.0108534,-0.0148952,0.738607,-0.110171,0.258662,10.8209
31392946,0.674203,0.0105678,-0.0150359,0.738317,0.0694556,0.225132,10.6269
31405108,0.674427,0.0105904,-0.0148922,0.738115,-0.0383203,0.189207,10.4712
31426922,0.674557,0.0108978,-0.0147419,0.737995,0.129331,0.261057,10.7969
31439108,0.674502,0.0106626,-0.0148733,0.738047,0.0910107,0.155676,10.7443
31460921,0.674488,0.0104916,-0.0147887,0.738063,0.00958008,0.184417,10.4592
31473107,0.674404,0.0108584,-0.0145487,0.73814,-0.201182,0.167651,10.6317
31494921,0.674259,0.0107513,-0.0144897,0.738274,-0.131726,0.241897,10.7922
31507179,0.674261,0.010519,-0.0145134,0.738276,0.00718506,0.184417,10.5167
31528921,0.674192,0.0107573,-0.0142629,0.73834,-0.160466,0.193997,10.5167
31550922,0.674204,0.0107586,-0.0140696,0.738333,-0.186812,0.198787,10.8065
31563112,0.674056,0.0104837,-0.0141358,0.73847,-0.0622705,0.136516,10.6628
31584921,0.674019,0.0104646,-0.014024,0.738507,-0.141306,0.0622705,10.4329
31597113,0.673994,0.010561,-0.0138089,0.738532,-0.150886,0.0910107,10.6532
31618921,0.673881,0.0106023,-0.0137319,0.738636,-0.174836,0.0263452,10.5862
31631111,0.673833,0.010816,-0.0135195,0.73868,-0.0766406,0.0670606,10.6868
31652922,0.673884,0.0104171,-0.0135548,0.738639,-0.0670606,-0.0502954,10.7706
31665111,0.673788,0.0102143,-0.0135004,0.73873,-0.179626,-0.150886,10.397
31686949,0.673611,0.0106222,-0.0130889,0.738894,-0.0431104,-0.150886,10.6269
31699113,0.673501,0.0106472,-0.0130157,0.738995,-0.0287402,-0.287402,10.9622
31720921,0.673548,0.0103301,-0.0130256,0.738956,-0.100591,-0.524509,10.5287
31742921,0.673482,0.0106117,-0.0128322,0.739016,-0.00479004,-0.5772,10.6197
31755108,0.67315,0.010779,-0.0127223,0.739318,-0.0958008,-0.495769,10.8951
31776921,0.672801,0.0103004,-0.012799,0.739641,-0.100591,-0.5772,10.7035
31789107,0.672523,0.010138,-0.0128326,0.739895,0.0838257,-0.704136,10.4712
31810946,0.672106,0.0104566,-0.0127592,0.740271,0.0263452,-0.723296,10.7107
31823107,0.671713,0.0101048,-0.0126189,0.740635,-0.0814307,-0.775986,10.8616
31844922,0.671341,0.0096851,-0.0125969,0.740978,-0.0431104,-0.986748,10.5622
31857111,0.670919,0.00988401,-0.0125117,0.741359,-0.342488,-1.09452,10.5598
31879929,0.670491,0.00985761,-0.0120225,0.741755,-0.249082,-0.416733,10.8448
31892108,0.670334,0.00970542,-0.0119839,0.741899,-0.0838257,-0.744851,10.852
31913922,0.670256,0.00907873,-0.0123996,0.74197,-0.548459,-1.65496,10.4042
31926119,0.670172,0.00897906,-0.0125717,0.742045,-0.469424,-1.2023,10.3323
31948921,0.670228,0.00976986,-0.0130515,0.741977,-0.229922,-0.852627,11.0029
31961107,0.670591,0.00854323,-0.0130422,0.741664,-0.371228,-0.965193,10.6916
31982921,0.670722,0.00788842,-0.0133108,0.741547,-0.256267,-0.893342,10.6556
32004921,0.671002,0.00766703,-0.0136584,0.741291,0.114961,-1.09692,9.87007
32017113,0.671296,0.00851801,-0.0124184,0.741037,-0.289797,-0.66342,10.7538
32038921,0.671858,0.00732331,-0.0128172,0.740533,-0.376018,-0.344883,11.2472
32051111,0.671989,0.0106474,-0.0127408,0.740375,1.23823,-1.18314,11.0772
32072922,0.672425,0.00745444,-0.0120892,0.740029,-0.589175,-0.546064,10.3826
32085111,0.672127,0.00783625,-0.0122004,0.740294,-0.58678,-0.833467,10.2605
32106948,0.671942,0.0104638,-0.0125178,0.740424,0.462239,-0.862207,10.682
32119113,0.671993,0.0109022,-0.0121087,0.740379,0.742456,-0.608335,11.937
32140921,0.671851,0.00989745,-0.0133379,0.7405,-1.25499,-0.608335,10.1024
32153111,0.671382,0.012577,-0.0139836,0.740873,-1.24781,-0.862207,9.89162
32174951,0.67162,0.01045,-0.0149098,0.740672,1.28852,-0.65863,11.9873
32187111,0.671976,0.00966858,-0.0164791,0.740326,-0.445474,-0.5772,10.2245
32208922,0.671728,0.0089296,-0.0144725,0.740603,-0.993933,-0.668211,8.14087
32231946,0.671229,0.00768472,-0.0104326,0.741137,1.11368,-0.184417,13.58
32244107,0.671918,0.00572258,-0.0146983,0.740458,0.637075,-0.481399,11.4029
32265922,0.671769,0.00533103,-0.0122525,0.74064,-2.90037,-1.42504,8.27738
32278111,0.67162,0.0043369,-0.0110619,0.7408,0.488584,-0.371228,10.7874
32299921,0.671855,0.00654301,-0.0143393,0.740515,1.01788,0.215552,12.404
32312109,0.6719,0.000527234,-0.0138556,0.740512,-1.64538,-0.680186,10.6987
32333921,0.671574,0.00497448,-0.0110811,0.740838,1.64059,-1.81782,9.05816
32346118,0.671071,0.0143365,-0.00982287,0.741189,0.0311353,0.474214,13.1129
32368921,0.67124,0.00827833,-0.0135382,0.74107,-2.51717,1.41785,12.9549
32381107,0.671442,0.00669945,-0.0199114,0.740759,0.0862207,-2.00703,6.50028
32402921,0.670728,0.0110295,-0.0133797,0.741501,3.84401,-1.79626,13.7189
32415107,0.670798,0.00689872,-0.0164395,0.741426,-2.77104,2.72314,12.4543
32436921,0.670658,0.0043386,-0.0200471,0.741483,0.778381,-0.215552,8.31331
32449107,0.669983,0.00551069,-0.0180944,0.742136,0.301772,-1.54479,10.8113
32470952,0.670069,-0.00187907,-0.015834,0.742127,-0.63947,0.869392,8.76836
32492921,0.66943,0.00480157,-0.0150848,0.742706,-0.220342,0.61552,11.5849
32505113,0.669176,-0.000940106,-0.0149514,0.742953,0.0407153,0.524509,10.9861
32526955,0.669059,-0.00763001,-0.012471,0.743066,0.986748,-1.23344,8.53365
32539112,0.668373,0.0012818,-0.0131777,0.743708,-2.08367,2.01182,11.5442
32560922,0.667625,-0.0134466,-0.0109822,0.744295,-0.308958,0.220342,7.00084
32573111,0.666557,-0.00241727,-0.00399476,0.745439,1.7771,-1.97589,10.9406
32594950,0.666449,-0.000166161,-0.00300152,0.745544,0.0670606,1.81782,13.0171
32607111,0.665766,-0.0052848,-0.00864512,0.746092,-0.902922,2.20581,13.9919
32628922,0.665099,-0.00150419,-0.0137035,0.746628,0.198787,-0.172441,6.31347
32651946,0.664499,-0.000595642,-0.0103251,0.747217,1.30289,-1.16158,12.5477
32664107,0.663637,-0.00293626,-0.0133814,0.747929,-2.63452,1.76273,11.0053
32676113,0.663731,-0.0138452,-0.0120056,0.747747,-3.5566,-1.00591,7.76485
32697921,0.664115,-0.00559649,-0.00803327,0.747566,3.4632,-1.2981,9.30964
32719921,0.664099,-0.000193096,-0.000792165,0.747644,-1.51605,2.92432,16.2863
32732109,0.664221,-0.0104421,-0.00285992,0.747458,-1.62382,-0.261057,9.58027
32753921,0.664858,-0.0115483,-0.00280487,0.746875,1.47533,-2.77343,5.45365
32766118,0.663913,0.000494135,0.00486398,0.747794,0.680186,2.65368,13.3907
32787922,0.664473,-0.00590071,0.00207617,0.747286,-2.19384,-0.117356,11.1562
32800111,0.664429,-0.00409663,0.0033029,0.747333,-0.0574805,-1.90404,10.7826
32821921,0.664653,-0.00407333,0.00179886,0.747139,1.17356,0.457449,9.58267
32834107,0.665586,-0.00309343,1.0835e-05,0.746315,-2.16031,1.47054,7.30979
32855922,0.66566,-0.00403946,-0.00299703,0.746238,-0.730481,1.52084,20.5854
32868108,0.666719,-0.011441,-0.0101927,0.745151,3.33387,-2.70158,7.13256
32889946,0.666631,-0.0097671,-0.00191925,0.745321,-0.474214,-0.402363,5.3818
32911921,0.666043,-0.00764039,0.000115098,0.745874,-2.68961,2.51238,21.1195
32924113,0.6655,-0.00917973,-0.00836437,0.746294,-0.56283,-0.764011,10.8185
32945953,0.665645,-0.0129759,-0.00228812,0.746152,1.53042,0.802332,7.37925
32958113,0.66526,-0.00696228,-0.00250012,0.746576,-1.3939,3.05605,11.8819
32979921,0.664672,-0.00940768,-0.00658381,0.747047,-1.19272,-1.16158,7.86304
32992111,0.664519,-0.0114923,-0.000507197,0.747182,0.919688,-2.68482,9.57788
33013946,0.664358,-0.00829019,0.00138367,0.747367,-0.416733,2.00942,9.97545
33026111,0.663955,-0.00624618,0.000533203,0.747746,-0.922083,1.42504,11.1107
33047922,0.66372,-0.0078413,0.0020258,0.747938,2.26808,1.13524,13.0986
33060112,0.664389,-0.0133453,-0.00378064,0.747258,-0.411943,0.186812,11.4795
33081921,0.664064,-0.0124515,-0.00485778,0.747556,-1.5376,-0.761616,6.51465
33103922,0.662794,-0.00751467,0.00268787,0.748759,1.34121,2.11001,11.3095
33116108,0.663395,-0.00845548,-0.000375661,0.748221,0.258662,1.78668,14.447
33138936,0.663864,-0.013699,-0.00791331,0.747686,-1.96392,-1.4442,8.26301
33151107,0.662964,-0.0102271,-0.00271755,0.748576,-0.265847,-0.289797,8.01393
33172922,0.662597,-0.0094241,0.00197912,0.748914,0.876577,1.64298,15.0337
33185115,0.663106,-0.00792683,-0.00558772,0.748462,0.0814307,0.136516,13.4051
33206923,0.662877,-0.00956609,-0.00701766,0.748635,-3.14227,0.833467,6.11707
33219108,0.662605,-0.00554598,-0.00500298,0.748932,-1.49689,-0.0742456,11.1706
33241921,0.663416,-0.00337837,-0.00725772,0.748208,0.58678,0.433499,9.4222
33254106,0.663923,-0.0017834,-0.00202158,0.747796,-0.531694,1.57592,10.4545
33275922,0.665778,-0.00130479,-0.0036202,0.74614,0.234712,0.883762,12.8686
33288107,0.666324,-0.00306892,-0.00691879,0.745624,0.922083,-0.59157,8.30852
33309946,0.665923,0.000364263,-0.00357797,0.746012,0.0910107,0.608335,11.4915
33322107,0.666203,-0.0038165,-0.00587909,0.745737,0.205972,1.74836,12.3681
33343922,0.667577,-0.00597036,-0.00547439,0.744497,0.0838257,0.0455054,9.93713
33356412,0.669323,-0.00353169,-0.0050407,0.742946,1.3939,0.253872,11.3909
33379929,0.671489,-0.00778575,-0.00747706,0.740936,-2.73272,0.323328,8.45701
33392108,0.672446,-0.00395911,-0.00487082,0.74012,-0.730481,0.55325,8.14326
33413922,0.673836,-0.00158446,-0.00117218,0.738879,0.804727,1.25978,15.0984
33426115,0.675711,-0.00609619,-0.00630487,0.737114,1.0083,0.179626,10.5503
33448921,0.677047,-0.00455452,-0.00398191,0.735915,-0.641865,-0.0814307,7.10861
33461107,0.677861,-0.00214879,0.00299224,0.735181,-2.38304,1.75315,17.8814
33482921,0.679718,-0.00509465,-0.00678599,0.733424,0.380808,0.958008,11.3143
33504921,0.681586,-0.00896865,-0.00822671,0.731637,-0.409548,-1.53042,5.36743
33517113,0.681846,-0.00283966,-0.00356372,0.731482,0.00958008,0.289797,13.4243
33538921,0.683148,-0.00641555,-0.00272678,0.730247,-0.483794,1.34361,12.0208
33551111,0.685041,-0.00697737,-0.00445047,0.728457,-1.1999,-1.1544,7.88699
33572922,0.685804,0.00207184,-0.000899659,0.727783,0.105381,0.270637,11.9657
33585111,0.687754,-0.0014306,0.00207696,0.725939,1.36756,1.07776,12.428
33606950,0.689481,-0.00181516,-0.000245891,0.724301,-1.03944,0.593965,10.373
33619113,0.690605,0.00274277,-0.00165409,0.723225,-0.986748,0.63947,9.30245
33640921,0.692135,-0.00075748,-0.000808809,0.721767,-0.838257,1.5879,11.8244
33653111,0.693838,-0.000267669,-0.00358832,0.720122,1.11608,1.25978,10.7155
33674951,0.695843,-0.00137716,-0.00486422,0.718176,-1.27415,-0.131726,8.62705
33696921,0.696805,0.00164051,-0.000687869,0.717259,-0.560435,0.450264,10.385
33709109,0.698621,0.00530424,0.00038148,0.715472,1.51844,1.9711,13.4937
33730946,0.701171,-0.00113676,-0.000172778,0.712992,-2.39262,0.938848,11.0604
33743107,0.702868,-0.00290668,-0.00091913,0.711314,-0.165256,-0.234712,7.61396
33764922,0.704851,0.00314968,0.000391221,0.709348,0.62031,1.22865,10.6772
33777111,0.707172,0.00200194,-0.000624203,0.707038,-0.823887,2.47406,13.6422
33799929,0.709349,-0.00285186,-0.00357061,0.704843,0.251477,0.162861,8.76118
33812108,0.711256,0.00160312,-0.0018225,0.702929,0.256267,0.232317,8.13847
33833922,0.713283,0.00322981,0.0018204,0.700867,-0.579595,2.09085,15.1726
33846115,0.715801,0.000151443,-0.00390974,0.698294,-0.790356,1.37474,11.228
33868921,0.718246,-0.00273171,-0.00288276,0.695778,0.440684,-0.129331,7.16609
33881107,0.720409,0.00285795,-0.000575489,0.693543,0.0670606,0.742456,11.7478
33902921,0.723011,0.00159154,-0.00169282,0.690832,-0.962798,1.83459,12.4567
33915107,0.725479,-0.0025453,-0.0026708,0.688234,0.984353,0.155676,9.58746
33936922,0.727636,0.000753633,-0.00176354,0.68596,0.524509,0.452659,9.25455
33958921,0.729767,0.0014478,-0.00159916,0.683692,-0.59636,1.00351,12.2507
33971112,0.731688,-0.00132294,-0.00292549,0.681633,0.737666,0.344883,10.4425
33992921,0.733546,-0.000441967,-0.00211599,0.679637,0.184417,0.371228,9.13959
34005111,0.735158,0.00167177,-0.00167028,0.677892,-0.538879,0.821492,11.6256
34026950,0.736828,0.000482141,-0.00210805,0.676076,0.177231,0.775986,11.173
34039113,0.738465,-0.000433356,-0.00187824,0.674289,0.134121,0.476609,9.94192
34060921,0.739942,0.00147857,-0.00173322,0.672667,0.136516,0.768801,10.8712
34073111,0.741544,0.000565163,-0.00165537,0.670902,-0.177231,1.06578,10.9406
34094946,0.743207,-0.000505845,-0.0015287,0.66906,-0.0455054,0.60115,9.89641
34107112,0.744757,0.00138651,-0.00129562,0.667333,-0.0981958,0.656235,10.3275
34128922,0.746317,0.0015398,-0.000930525,0.665588,-0.332908,0.732876,11.3694
34150946,0.747983,0.000136991,-0.00126734,0.663717,-0.0502954,0.450264,10.6389
34163107,0.74957,0.000844698,-0.00119375,0.661924,0.0431104,0.364043,10.021
34184922,0.75107,0.00177552,-0.000704592,0.660219,-0.191602,0.613125,11.0388
34197111,0.752651,0.000916607,-0.000944371,0.658419,-0.114961,0.579595,10.9191
34219929,0.754235,0.000627863,-0.000983506,0.656603,-0.148491,0.344883,10.0832
34232108,0.755803,0.00168966,-0.000639781,0.654797,-0.0383203,0.538879,10.6724
34253922,0.757432,0.00146365,-0.000601297,0.652912,-0.237107,0.579595,11.0436
34266115,0.759128,0.000703653,-0.000672728,0.650941,-0.215552,0.356858,10.2748
34288921,0.760802,0.00150423,-0.000468447,0.648982,-0.126936,0.354463,10.4545
34301107,0.762506,0.0017128,-0.000345246,0.646979,-0.170046,0.313748,11.0436
34322921,0.764187,0.000682297,-0.000545735,0.644994,-0.107776,0.0431104,10.6556
34335107,0.765785,0.000775186,-0.000577695,0.643095,-0.189207,-0.105381,10.1599
34356922,0.767344,0.00143657,-0.000289955,0.641234,-0.146096,0.100591,10.8017
34369108,0.76902,0.00105399,-0.000364454,0.639224,-0.0622705,0.0886157,10.8927
34390946,0.770666,0.000708134,-0.000446138,0.637239,-0.244292,-0.0407153,10.3012
34412921,0.772271,0.00123521,-0.000234687,0.635292,-0.122146,0.0862207,10.5814
34425113,0.773891,0.0011889,-0.000235837,0.633317,-0.153281,0.129331,10.8712
34446954,0.775503,0.000660741,-0.000342045,0.631344,-0.251477,0.00718506,10.4329
34459112,0.777096,0.000952026,-0.000192862,0.629381,-0.184417,-0.00479004,10.4377
34480922,0.778739,0.00121021,-7.19409e-05,0.627347,-0.184417,0.162861,10.864
34493111,0.780385,0.000831151,-7.49296e-05,0.625298,-0.170046,0.119751,10.7107
34514951,0.782023,0.000818534,-3.2587e-06,0.623249,-0.198787,0.0574805,10.4736
34527111,0.78363,0.00100739,8.8267e-05,0.621227,-0.112566,0.0742456,10.6221
34548922,0.785268,0.000891627,1.7493e-05,0.619155,-0.0981958,0.0958008,10.6532
34561112,0.786846,0.000840738,7.90032e-05,0.617148,-0.138911,0.0119751,10.5838
34582921,0.78845,0.000987107,0.000162351,0.615098,-0.0814307,0.0215552,10.6317
34595412,0.79008,0.000840609,0.000158752,0.613004,-0.227527,-0.0574805,10.6892
34617921,0.79162,0.000734255,0.000185903,0.611014,-0.177231,-0.184417,10.555
34630112,0.793134,0.000820396,0.000286867,0.609046,-0.112566,-0.268242,10.6125
34651922,0.794634,0.000875343,0.000377622,0.607088,-0.124541,-0.234712,10.6772
34673921,0.796124,0.000729556,0.000351046,0.605133,-0.129331,-0.373623,10.6508
34686114,0.797641,0.000590947,0.000363378,0.603132,-0.217947,-0.514929,10.5479
34708922,0.799161,0.000669731,0.000486688,0.601117,-0.239502,-0.617915,10.4664
34721107,0.800629,0.00112933,0.000651013,0.59916,-0.191602,-0.684976,10.7682
34742921,0.802107,0.00103828,0.00060895,0.597179,-0.0862207,-0.670605,10.9023
34755108,0.803601,0.000758281,0.000637094,0.595168,-0.191602,-0.764011,10.6149
34776922,0.805069,0.000797456,0.00061471,0.59318,-0.294587,-0.989143,10.6053
34789108,0.806611,0.000867181,0.000605092,0.591082,-0.397573,-1.10889,10.7011
34810946,0.808175,0.00076812,0.000602984,0.588941,-0.270637,-1.16637,10.7275
34823107,0.809893,0.000516844,0.000457531,0.586577,-0.419128,-1.09213,10.6006
34844922,0.811653,0.000671181,0.000351992,0.584139,-0.407153,-1.33642,10.8832
34857111,0.813454,-0.000371859,0.000171109,0.581629,-0.00239502,-1.36995,10.6077
34878921,0.815268,-0.000230267,-9.14e-06,0.579083,-0.0814307,-1.29331,10.3227
34900921,0.817054,-0.000160782,-9.88375e-05,0.576561,-0.387993,-1.32205,11.2903
34913111,0.818943,-0.00173758,8.3372e-06,0.573873,-0.457449,-1.37714,10.4161
34934946,0.820895,-0.00087903,-6.37928e-05,0.571079,-0.0526904,-1.35079,10.2006
34947112,0.822654,0.000383697,-0.000486439,0.568542,0.275427,-1.06818,11.1251
34968922,0.824282,-0.000608472,-0.000415012,0.566179,0.716111,-1.04183,11.0125
34981111,0.825887,-0.00408907,-0.00100088,0.563821,0.438289,-1.62861,9.43418
35002921,0.827233,0.000897259,-0.000507201,0.561858,-0.831072,-1.45378,9.30724
35015113,0.828578,-0.000518176,-0.00100833,0.559873,-2.23455,0.308958,12.9117
35036921,0.830438,-0.00637504,-0.00147395,0.557072,-0.141306,-1.5855,10.8329
35049113,0.832091,-0.0047208,-0.000427727,0.554618,0.675396,-1.51126,7.93489
35070922,0.833314,-0.00168409,0.00294519,0.55279,0.397573,-0.680186,14.1308
35092921,0.834983,-0.00605287,0.000759502,0.550242,1.5879,0.847837,13.0171
35105109,0.836227,-0.0174186,-0.0011601,0.548105,-0.637075,-2.39981,6.68469
35126923,0.837359,-0.0101454,-0.000236271,0.546559,0.198787,-2.47885,8.16482
35139108,0.838529,-0.00851358,0.00328527,0.544781,-1.28613,1.99026,16.4803
35160921,0.840089,-0.0162013,-0.00288074,0.542198,0.512534,-2.76385,10.7347
35173107,0.841805,-0.0139813,-0.00322474,0.53959,-0.193997,-1.60466,3.87773
35194922,0.842074,-0.0121735,-0.0058163,0.539193,-2.38065,-0.0263452,16.1642
35207107,0.842929,-0.0202158,-0.00537159,0.537618,-0.390388,-1.38193,8.74681
35228946,0.843066,-0.0174607,-0.000886046,0.537526,3.52068,0.102986,8.81626
35241107,0.843043,-0.0177089,0.00110703,0.537553,0.325723,1.85135,16.8683
35262922,0.843141,-0.0296146,-0.00619392,0.536841,-3.30752,-0.759221,7.4008
35284929,0.842501,-0.0246169,-0.00113425,0.53813,1.01788,-2.66326,8.62466
35297108,0.842308,-0.0163756,0.00214638,0.538744,1.99745,0.670605,14.3943
35318921,0.842287,-0.0203765,0.00194472,0.538641,-3.42967,-0.59636,10.9861
35331111,0.841679,-0.0184751,0.000309588,0.539662,1.72681,-0.687371,7.32416
35352946,0.840604,-0.0109577,0.00559716,0.541511,2.39981,3.43925,15.6995
35365112,0.840727,-0.0199285,-0.00258559,0.541086,0.61073,0.148491,11.3119
35386922,0.840034,-0.0293663,-0.00402197,0.541724,-2.43813,-1.31008,5.94224
35399111,0.838743,-0.0158108,-1.4334e-05,0.544298,-0.65384,-1.85614,6.37095
35420921,0.838928,-0.0152993,0.00430052,0.54401,1.00112,-0.462239,13.1105
35433113,0.838403,-0.0182933,0.00180627,0.544741,-0.210762,0.996328,10.9694
35454921,0.837697,-0.0123957,0.00137851,0.545993,-2.13875,0.330513,9.1803
35477940,0.83715,-0.0156747,-0.00165121,0.546747,1.46815,2.1172,15.2134
35490107,0.836831,-0.0219996,-0.00621374,0.546984,1.67172,-1.9711,5.70992
35511922,0.836007,-0.0168148,-0.000383978,0.548461,-1.35319,0.445474,9.51321
35524113,0.835491,-0.0182243,-0.00347775,0.549191,0.5772,2.51956,17.5174
35546921,0.835339,-0.0271829,-0.00838966,0.548998,-0.112566,-0.835862,9.63057
35559105,0.834785,-0.0244337,-0.00459936,0.550014,1.06818,-1.45617,6.0548
35581921,0.834228,-0.0160509,-0.00301985,0.551178,-0.423918,0.0981958,12.2627
35594106,0.833175,-0.0156999,0.00252762,0.55278,-1.62861,2.40939,16.3917
35615922,0.833022,-0.028722,-0.0045129,0.552476,1.08973,1.36516,10.9502
35628107,0.833174,-0.0260495,-0.00979543,0.55231,-0.847837,-1.62622,3.78432
35649946,0.832966,-0.019708,-0.00235738,0.552969,-2.62734,0.579595,12.8255
35662107,0.832832,-0.0227676,-0.0016098,0.553055,-0.134121,0.946033,10.9981
35683922,0.833034,-0.0282378,0.00233209,0.552496,1.11608,0.871787,8.25104
35696111,0.83286,-0.0197772,0.00111715,0.553129,-0.205972,0.862207,11.8388
35717921,0.832688,-0.0264195,0.00316008,0.553103,-0.914898,0.498164,11.3358
35730109,0.832674,-0.0322225,0.00336949,0.552814,1.26218,-0.186812,12.0663
35751921,0.833121,-0.031662,0.000610329,0.552183,-1.33882,0.0694556,4.73994
35773946,0.833169,-0.0319628,0.00531719,0.552068,-2.09804,0.270637,10.9047
35786111,0.833217,-0.0341239,0.00675372,0.551851,1.11608,0.56762,12.0112
35807922,0.833994,-0.0383527,0.0105701,0.550337,0.651445,1.14482,9.75271
35820112,0.834376,-0.0412916,0.0120402,0.549516,-1.46815,0.215552,9.07732
35841921,0.834243,-0.0427489,0.0142535,0.549552,-0.622705,-0.855022,9.45573
35854113,0.834196,-0.0407989,0.0190493,0.549627,2.17468,0.519719,12.0447
35875921,0.834368,-0.0427649,0.0195173,0.549199,-0.699346,1.57353,11.9753
35888113,0.834087,-0.0440784,0.019239,0.549533,-2.92432,-0.0981958,10.6125
35909922,0.833888,-0.0442147,0.0205687,0.549776,2.37346,-0.208367,9.35754
35922111,0.834212,-0.0354008,0.0208567,0.54991,0.134121,-0.361648,10.1168
35943922,0.833747,-0.0301747,0.025403,0.550735,-2.30401,1.81782,19.1029
35956111,0.833384,-0.0404133,0.0150658,0.551009,0.220342,2.86205,14.1284
35977921,0.834007,-0.0484331,0.0114279,0.549505,2.45011,-1.03704,4.1819
36000921,0.834185,-0.0363,0.0125243,0.550146,-1.91123,-1.53042,9.75511
36013106,0.833728,-0.0329533,0.0183321,0.550886,-1.86572,2.88839,11.6999
36034922,0.833967,-0.0389007,0.0152928,0.550229,1.22625,2.50519,13.5656
36047107,0.834413,-0.0337292,0.00986735,0.550018,-2.22976,-0.155676,5.4776
36068946,0.8342,-0.0272336,0.0193765,0.550448,-0.926873,0.792751,15.2373
36081107,0.834809,-0.0279316,0.0107644,0.549726,1.50647,1.96871,14.3248
36102922,0.83562,-0.0359261,0.0109868,0.548022,-0.0598755,1.14721,7.53014
36115111,0.836213,-0.0311132,0.0084306,0.547457,-1.70525,-0.00479004,9.53716
36137941,0.836503,-0.0299465,0.00888743,0.547071,-1.68609,-0.179626,10.0473
36150108,0.837018,-0.0335126,0.0106564,0.546044,2.04535,0.519719,11.4125
36171922,0.837999,-0.0324176,0.00823627,0.544646,0.225132,0.780776,9.63057
36184109,0.838738,-0.0351672,0.00904092,0.543323,-2.25611,0.189207,10.6245
36206921,0.838641,-0.0341208,0.0114725,0.543493,0.354463,0.0191602,9.82696
36219107,0.839519,-0.0297699,0.0124141,0.542373,1.56634,1.18793,13.7428
36240921,0.840178,-0.0336029,0.0097266,0.541181,-0.819097,0.847837,10.5215
36253108,0.840653,-0.0312991,0.0101477,0.540574,-0.732876,-0.301772,7.09903
36274921,0.840799,-0.0280095,0.0111636,0.540508,0.378413,1.85854,12.6722
36296921,0.841198,-0.0319892,0.00933226,0.5397,0.0311353,0.198787,11.6927
36309129,0.84132,-0.0346176,0.011863,0.539297,0.0215552,-0.687371,7.99477
36330921,0.841621,-0.0287434,0.0120794,0.539169,0.981958,0.490979,10.2629
36343111,0.841963,-0.0266093,0.0112902,0.53876,-0.280217,0.483794,12.9549
36364945,0.842151,-0.0344663,0.0124054,0.537997,-0.435894,0.713716,10.3323
36377113,0.842193,-0.0295197,0.0110784,0.538254,0.500559,-0.62031,7.73132
36398921,0.842092,-0.020916,0.0146675,0.538729,-0.361648,0.122146,14.5811
36411111,0.841941,-0.0260652,0.0118992,0.538808,-0.126936,2.56028,13.3381
36432946,0.842291,-0.02955,0.00762898,0.538159,0.833467,-0.373623,7.1134
36445111,0.842159,-0.0193191,0.00786335,0.538825,0.318538,-0.222737,10.3587
36466922,0.841904,-0.0209587,0.0106803,0.539115,-1.57592,0.941243,11.5586
36489946,0.841691,-0.0244349,0.0111348,0.539291,-0.387993,0.56283,9.49166
36502107,0.842041,-0.0174576,0.00832935,0.539067,1.88009,0.191602,9.27131
36523922,0.842193,-0.0143283,0.0112654,0.538869,-3.29315,1.29092,14.6386
36536111,0.842107,-0.0193332,0.00784401,0.538907,-0.764011,1.73878,11.0963
36557948,0.842451,-0.0217782,0.00643063,0.538294,2.8357,-0.136516,6.67272
36570108,0.842481,-0.0112554,0.00707334,0.538562,-1.33882,0.479004,10.7682
36591922,0.842243,-0.0117701,0.00973478,0.538881,-0.105381,1.36995,12.7633
36604109,0.842351,-0.0188813,0.00951141,0.538514,1.13763,0.864602,11.046
36626922,0.842425,-0.014143,0.00686438,0.538584,-0.5772,0.387993,6.28233
36639107,0.842188,-0.00898993,0.00909008,0.539032,-1.43222,1.02746,12.9453
36661921,0.8419,-0.0127362,0.00794884,0.539425,0.411943,1.73878,12.8614
36674107,0.842328,-0.0199881,0.00826049,0.538532,1.51605,0.356858,7.44152
36695922,0.842306,-0.00902954,0.00780736,0.538868,-1.45857,0.493374,8.47617
36708108,0.842383,-0.0102613,0.0077438,0.538726,-0.783171,2.33035,13.5871
36729946,0.84241,-0.01494,0.00494187,0.538607,1.29571,0.996328,11.2424
36742107,0.842494,-0.0152886,0.005431,0.538461,-1.0083,0.63947,7.22357
36763922,0.842239,-0.0114915,0.00520126,0.538957,-0.440684,1.07057,11.8603
36785939,0.842159,-0.0124511,0.00551215,0.539057,0.404758,1.61903,11.3694
36798113,0.842338,-0.0154858,0.0068074,0.538685,0.433499,1.04423,11.058
36819921,0.842333,-0.0131598,0.00558781,0.538768,-0.00958008,0.742456,9.47489
36832111,0.842298,-0.0125075,0.00727805,0.538818,-0.814307,1.06578,10.7347
36853946,0.84217,-0.0131933,0.00714666,0.539004,0.0143701,1.06339,11.5777
36866111,0.842229,-0.0141876,0.00621841,0.538898,0.196392,0.725691,9.86528
36887921,0.842089,-0.0132387,0.0068656,0.539133,-0.617915,0.62989,10.3179
36900111,0.841937,-0.0123156,0.00703307,0.539389,0.378413,0.965193,11.0364
36921921,0.841968,-0.0132581,0.00702536,0.539318,-0.134121,0.878972,10.6772
36934113,0.841822,-0.0126713,0.0071351,0.53956,-0.342488,0.59636,10.3036
36955921,0.841735,-0.0117262,0.00731445,0.539714,0.0550855,0.924478,10.8305
36978936,0.841734,-0.0120869,0.0073119,0.539708,-0.598755,1.03704,10.9933
36991107,0.841742,-0.012559,0.00723656,0.539685,0.0479004,0.977168,10.1766
37003113,0.841837,-0.011868,0.00721969,0.539553,0.201182,0.931663,10.3275
37024928,0.841847,-0.0111827,0.00733362,0.539551,0.0479004,0.883762,10.7826
37047921,0.841807,-0.0115667,0.00755544,0.539602,0.00479004,0.754431,10.7107
37060102,0.841792,-0.0115841,0.00756506,0.539624,-0.208367,0.512534,10.488
37082921,0.841765,-0.011111,0.00763392,0.539677,-0.296982,0.462239,10.5934
37095102,0.841716,-0.0111128,0.0076054,0.539753,-0.0981958,0.378413,10.8664
37116921,0.841631,-0.0115656,0.00744897,0.539878,-0.0718506,0.213157,10.5503
37129102,0.841574,-0.0114199,0.0074365,0.539969,-0.129331,0.148491,10.4018
37150946,0.841519,-0.0111891,0.00736476,0.540061,-0.167651,0.160466,10.7586
37163103,0.841481,-0.0115364,0.00726365,0.540114,-0.0215552,0.107776,10.694
37184922,0.841447,-0.0116207,0.0072454,0.540166,-0.122146,0.0431104,10.4329
37197106,0.841383,-0.0112975,0.00729589,0.540272,-0.148491,0.0359253,10.6029
37219929,0.841337,-0.0111355,0.00736486,0.540346,-0.153281,0.160466,10.7131
37232104,0.841284,-0.0110566,0.00739831,0.540429,-0.229922,0.229922,10.7035
37253922,0.841226,-0.0109806,0.00744934,0.54052,-0.167651,0.268242,10.5862
37266112,0.841184,-0.0109421,0.00738782,0.540588,-0.0239502,0.225132,10.6508
37288921,0.841134,-0.0109736,0.00740887,0.540664,-0.193997,0.246687,10.6293
37301105,0.841121,-0.0109672,0.00750575,0.540683,-0.179626,0.148491,10.579
37322921,0.84114,-0.0108359,0.00757778,0.540656,-0.347278,0.148491,10.5263
37335104,0.841178,-0.0107436,0.00752656,0.5406,-0.114961,0.213157,10.6461
37356922,0.841178,-0.0106745,0.00752268,0.5406,-0.0311353,0.191602,10.6437
37378921,0.841178,-0.0106113,0.00754096,0.540601,-0.141306,0.229922,10.5503
37391112,0.841168,-0.0104001,0.00760371,0.540621,-0.177231,0.184417,10.6508
37412922,0.841209,-0.0104299,0.00765236,0.540555,-0.217947,0.208367,10.7227
37425111,0.841209,-0.0105623,0.00767329,0.540552,-0.186812,0.112566,10.5119
37446950,0.84123,-0.0103131,0.00773809,0.540524,-0.0814307,0.122146,10.6006
37459112,0.841218,-0.0101516,0.00779203,0.540544,-0.184417,0.141306,10.7347
37480922,0.841223,-0.0103304,0.00776129,0.540534,-0.189207,0.107776,10.6101
37493111,0.841223,-0.0102849,0.00776826,0.540534,-0.141306,0.129331,10.5191
37514951,0.841198,-0.0100571,0.00780049,0.540577,-0.141306,0.0814307,10.6437
37527111,0.841214,-0.0101114,0.00779017,0.540551,-0.170046,0.134121,10.6485
37548922,0.841231,-0.0101423,0.00785428,0.540523,-0.234712,-0.0838257,10.5335
37571946,0.842051,-0.00992562,0.00794374,0.539249,-0.249082,-0.0790356,10.6101
37584103,0.842892,-0.00979573,0.00800981,0.537933,-0.201182,-0.0838257,10.6508
37605922,0.842924,-0.00989849,0.00805426,0.537881,-0.112566,-0.205972,10.6508
37618106,0.84376,-0.0100399,0.008101,0.536565,-0.150886,-0.220342,10.5527
37639921,0.843858,-0.0100723,0.00824054,0.536409,-0.287402,-0.397573,10.5071
37652105,0.844709,-0.00964203,0.00846149,0.535073,-0.198787,-0.500559,10.6317
37673921,0.844834,-0.00944039,0.00863694,0.534876,-0.143701,-0.512534,10.8999
37686112,0.845749,-0.00979869,0.00875298,0.53342,-0.299377,-0.486189,10.7131
37708921,0.846574,-0.00994521,0.00880351,0.532105,-0.294587,-0.742456,10.6053
37721105,0.847413,-0.00994411,0.00884651,0.530767,-0.239502,-0.792751,10.5982
37742921,0.848328,-0.0100997,0.00878809,0.529302,-0.222737,-0.754431,10.555
37755104,0.849245,-0.00994112,0.00877989,0.527833,-0.349673,-0.869392,10.5383
37776922,0.850207,-0.0095512,0.00883665,0.526287,-0.304167,-0.771196,10.9382
37789105,0.851162,-0.00976285,0.00884204,0.524737,-0.0838257,-0.761616,10.8329
37810946,0.8521,-0.00960755,0.00882555,0.523217,-0.280217,-0.792751,10.5886
37832921,0.853016,-0.00922731,0.00900119,0.521726,-0.287402,-0.859812,10.8544
37845113,0.853939,-0.00979688,0.00897315,0.520204,-0.170046,-0.850232,10.5934
37866950,0.854836,-0.00939767,0.00879977,0.518738,-0.124541,-0.797542,10.1287
37879112,0.855681,-0.00887277,0.00886548,0.517352,0.00239502,-0.749641,10.8999
37900922,0.85647,-0.0094037,0.00899212,0.516034,-0.543669,-0.797542,10.6389
37913111,0.857285,-0.00926047,0.00908794,0.514679,0.138911,-0.486189,10.7251
37934951,0.85752,-0.00981003,0.00899528,0.514278,-0.182021,-0.371228,10.9143
37947111,0.858222,-0.00879867,0.00894005,0.513125,-0.5772,-0.63468,10.5622
37968922,0.858365,-0.0100163,0.00997673,0.512845,0.241897,-0.584385,10.6437
37981112,0.859168,-0.00846383,0.00919553,0.511541,-0.974773,-0.857417,10.3371
38002921,0.859916,-0.00769755,0.00913238,0.510296,-0.148491,0.0718506,10.7083
38015411,0.860552,-0.00996132,0.00887213,0.509187,0.294587,-0.385598,12.0903
38037921,0.860422,-0.0102947,0.00841885,0.509409,1.04183,-0.900527,9.91797
38050113,0.860973,-0.00968294,0.010059,0.50846,0.843047,-0.174836,10.1479
38071922,0.860721,-0.0100932,0.0105279,0.508867,-1.1999,-0.0502954,11.7526
38093921,0.861133,-0.0133297,0.00986192,0.508109,-0.696951,-1.27894,8.95278
38106121,0.860637,-0.00611712,0.012209,0.509036,0.66342,-0.924478,10.1862
38128921,0.860804,-0.00541445,0.0127836,0.508748,-0.404758,1.12087,13.374
38141104,0.860676,-0.0122742,0.0101971,0.508902,-2.48603,-0.65384,9.43657
38162921,0.860137,-0.0100037,0.0108841,0.509849,0.699346,-1.14482,7.7864
38175107,0.859851,-0.00710116,0.0132626,0.510324,-0.59636,0.00239502,12.3729
38196922,0.859553,-0.00802487,0.0130674,0.510817,0.934058,0.294587,12.428
38209108,0.859419,-0.00946647,0.0132783,0.511012,0.924478,-0.711321,8.74201
38230946,0.85914,-0.00865039,0.0130099,0.511503,-1.60227,0.0191602,11.1083
38243108,0.858653,-0.0114708,0.0130591,0.512263,-1.86572,0.646655,10.3587
38264922,0.858292,-0.0114662,0.0146527,0.512824,-0.0838257,-0.275427,9.4222
38277108,0.858451,-0.00500103,0.0121312,0.512728,0.905317,-0.608335,12.0567
38299929,0.858151,-0.0029337,0.0145419,0.513183,-4.3278,0.160466,12.5357
38312107,0.858125,-0.00993629,0.015303,0.513116,1.65735,0.402363,8.34923
38333922,0.858461,0.000521487,0.0104041,0.512772,2.17228,0.00479004,10.8401
38356946,0.858157,-0.00227793,0.010783,0.513269,-3.28357,0.316143,13.1297
38369111,0.858174,-0.0150163,0.0109845,0.513022,2.18426,-1.50407,8.34444
38390921,0.85829,-0.00304785,0.00836373,0.513087,1.11368,0.289797,7.05353
38403112,0.858172,0.000630802,0.00863015,0.513289,-3.36021,2.11241,15.278
38424921,0.85819,-0.0082182,0.0105373,0.513158,0.347278,0.0119751,9.94671
38437113,0.858452,-0.0135387,0.0123135,0.512567,1.14961,-1.86572,4.3256
38458921,0.857654,0.0101383,0.0156957,0.513887,0.428709,-0.632285,11.0604
38471111,0.8578,0.00505177,0.022238,0.513478,0.117356,4.10027,12.1573
38492922,0.858167,-0.0101238,0.0113949,0.513144,-1.28613,0.922083,13.3045
38505111,0.85797,-0.00681246,0.0082263,0.513589,1.28373,-3.36021,3.13048
38526953,0.857674,-0.00471524,0.0192054,0.513813,0.409548,-1.02986,9.59225
38539112,0.857701,-0.000177088,0.0145482,0.513943,-0.692161,3.42248,15.7546
38560921,0.857572,0.00552535,0.0144463,0.514132,-3.08,0.764011,13.6566
38582921,0.857019,0.00181895,0.0169561,0.515002,2.00703,1.2526,11.4005
38595108,0.857024,0.00593235,0.00733543,0.515191,-1.13763,0.198787,8.99349
38616922,0.85648,0.00875303,0.00627153,0.516067,0.510139,0.0550855,10.6964
38629108,0.855851,0.00871157,0.00826963,0.517083,0.304167,0.972378,13.2997
38650946,0.856124,0.00444668,0.00433729,0.516733,0.182021,-0.0742456,7.81035
38663107,0.855694,0.0118565,0.00313027,0.517337,0.249082,-1.56634,8.08817
38684922,0.855808,0.0113884,0.00444459,0.517149,-0.61073,3.23328,14.696
38697111,0.85636,0.00242141,-0.00215116,0.516369,-0.150886,-0.696951,10.8927
38719929,0.856,0.00804725,-0.000913324,0.516913,0.917293,-2.79738,3.6981
38732108,0.855508,0.0157199,0.00694717,0.517505,-1.99745,2.25371,15.4457
38753922,0.855633,0.0123083,0.00186013,0.517433,0.131726,1.97589,11.7645
38776946,0.855728,0.00971851,0.0030979,0.517325,0.0886157,-0.311353,10.306
38789111,0.855621,0.0132769,0.00155814,0.517431,-0.299377,0.692161,11.0532
38801109,0.855596,0.01493,-0.00104076,0.517427,-1.33642,0.399968,12.4711
38823922,0.855759,0.010898,-0.00383855,0.517245,1.35079,0.371228,10.5934
38836107,0.855822,0.012853,-0.00382707,0.517096,-0.845442,0.330513,7.4032
38857922,0.855512,0.0192063,-0.00240586,0.517421,-0.512534,0.138911,13.853
38879921,0.85609,0.0129533,-0.00380333,0.51665,0.0167651,1.64298,10.9287
38892111,0.856345,0.0151492,-0.00506573,0.516157,-1.18793,-1.54,7.52774
38913921,0.855934,0.0227116,-0.00249326,0.51658,0.330513,1.09931,12.9165
38926111,0.8569,0.0112487,-0.00279868,0.515352,1.40588,1.78908,10.1144
38947968,0.857269,0.0071909,-0.0015479,0.514817,-1.15679,-0.179626,8.62226
38960112,0.857561,0.00814599,-6.47958e-05,0.514318,-1.51126,0.136516,8.22469
38981922,0.857614,0.0057523,0.00630027,0.514223,-0.938848,0.160466,9.65931
38994112,0.857506,0.0137227,0.00754726,0.514236,0.536484,1.28613,12.0879
39015950,0.85776,0.0133127,0.00756141,0.513823,0.222737,-0.332908,11.6089
39028112,0.857792,0.01224,0.00918876,0.513769,0.249082,0.119751,9.039
39049922,0.85778,0.0208674,0.00699717,0.513545,0.134121,0.56283,9.29527
39062111,0.857937,0.0191298,0.00698528,0.513351,-2.45969,-0.543669,12.1645
39083921,0.857988,0.0131149,0.00928494,0.513418,0.864602,2.13396,12.2387
39105922,0.858676,0.00888945,0.00837501,0.512374,0.768801,0.517324,8.54083
39118107,0.858966,0.011699,0.00947064,0.511811,1.12805,-0.919688,7.52056
39140921,0.858963,0.0200579,0.0109363,0.511528,-1.45138,1.74118,12.6722
39153107,0.8591,0.0162646,0.0108361,0.511434,-0.855022,2.32317,12.9477
39174921,0.859581,0.00807081,0.0118069,0.510799,2.08606,-0.718506,9.39346
39187200,0.859558,0.013949,0.00952537,0.510759,-0.308958,-0.356858,6.71583
39208921,0.85886,0.0204552,0.0169627,0.51152,-1.11368,0.744851,15.5846
39221109,0.859131,0.0159597,0.0136251,0.511325,-1.10889,2.36867,12.6459
39243922,0.859525,0.00600393,0.0148555,0.510842,-0.445474,0.306563,7.40559
39256107,0.859136,0.0168103,0.0138306,0.511284,1.07536,-0.934058,8.62705
39277922,0.859106,0.017216,0.016349,0.511246,-0.387993,1.93997,13.0219
39290108,0.859253,0.0138861,0.0132825,0.511191,-0.136516,0.428709,11.2664
39311946,0.85895,0.0126086,0.0147246,0.511692,-1.3939,0.534089,7.21399
39324107,0.858683,0.0155255,0.0160666,0.51202,0.589175,1.18793,13.1369
39345922,0.858955,0.0128729,0.0141329,0.511694,0.368833,1.01788,10.476
39367965,0.858882,0.00930937,0.0173428,0.511795,-0.912502,-0.261057,9.47729
39380111,0.85846,0.0131365,0.0173588,0.512418,0.766406,0.0838257,10.4545
39401922,0.858434,0.0192507,0.0169652,0.512282,0.261057,0.831072,11.6951
39414112,0.858217,0.0141949,0.01954,0.512719,-1.29331,1.48252,10.4616
39435922,0.857668,0.00849133,0.0219963,0.513663,0.320933,0.488584,7.43194
39448111,0.856925,0.0203799,0.0208634,0.514615,0.704136,0.878972,11.046
39469921,0.856724,0.0169383,0.0209861,0.51507,-0.184417,2.1651,14.0087
39482111,0.856792,0.0125885,0.0174315,0.515214,0.888552,0.0574805,9.31921
39503921,0.856344,0.0139605,0.0169508,0.515939,-1.71244,0.63947,7.55648
39516113,0.855917,0.0165354,0.0165639,0.516583,-0.179626,0.694556,12.6291
39537921,0.855525,0.0143516,0.0179383,0.517251,-0.0263452,1.74836,11.2544
39560921,0.855472,0.0128788,0.0192253,0.517332,1.2502,0.701741,9.3767
39573107,0.855291,0.0177955,0.0181981,0.517523,-0.505349,1.10889,11.4292
39594921,0.855162,0.0143146,0.0187769,0.517823,-2.15312,1.51844,10.3587
39607186,0.854722,0.016131,0.0187339,0.518497,1.55916,0.464634,10.6964
39628922,0.854758,0.0180299,0.017811,0.518408,0.469424,1.63101,11.1825
39641111,0.854666,0.0155124,0.0180814,0.518631,-1.83219,1.36516,10.1287
39662921,0.854206,0.0175296,0.0174755,0.519345,0.201182,0.65863,10.4353
39675107,0.854172,0.0176688,0.018003,0.519379,0.340093,1.19032,11.0149
39696922,0.854181,0.0171118,0.0174856,0.5194,-1.48731,0.699346,10.5479
39709108,0.854016,0.0183542,0.0168566,0.51965,0.184417,0.684976,9.9994
39730946,0.853866,0.0194816,0.0175096,0.519833,0.423918,1.33882,11.4867
39743107,0.853863,0.0181709,0.0161546,0.51993,-0.347278,1.53521,10.8568
39764922,0.853734,0.0178352,0.0147411,0.520195,-0.349673,0.60115,9.42939
39786958,0.853469,0.0196843,0.0154187,0.520543,0.500559,0.965193,10.8065
39799112,0.853414,0.0187978,0.0155498,0.520663,-0.172441,1.36995,11.149
39820922,0.853384,0.0182071,0.0149611,0.52075,-0.775986,0.56283,9.89162
39833111,0.853201,0.0193421,0.0155999,0.52099,0.177231,0.574805,10.4497
39854946,0.853198,0.019284,0.0158045,0.52099,-0.189207,1.0107,11.2424
39867111,0.853174,0.0185025,0.0154323,0.52107,-0.584385,0.632285,10.4305
39888921,0.853084,0.0187639,0.0159219,0.521192,-0.110171,0.632285,10.2629
39901111,0.853114,0.0192687,0.0159356,0.521125,-0.311353,0.706531,10.8832
39922921,0.853236,0.0189221,0.0156965,0.520946,-0.433499,0.673001,10.6916
39935113,0.853309,0.0186706,0.0159142,0.520828,-0.134121,0.529299,10.4329
39956921,0.853334,0.0192459,0.0158692,0.520768,-0.0910107,0.656235,10.6389
39979921,0.853402,0.0193209,0.0158119,0.520655,-0.325723,0.730481,10.785
39992107,0.853508,0.0189498,0.0159997,0.52049,-0.256267,0.752036,10.5622
40013921,0.853706,0.0190818,0.0160588,0.520158,-0.251477,0.754431,10.5311
40026115,0.853952,0.0192057,0.0161535,0.519746,-0.409548,0.775986,10.6077
40048921,0.854291,0.018987,0.0163676,0.51919,-0.438289,0.785566,10.5335
40061107,0.854736,0.0191811,0.0164789,0.518447,-0.328118,0.613125,10.5383
40083922,0.855274,0.0194303,0.0165248,0.517547,-0.467029,0.598755,10.7035
40096107,0.855807,0.0192089,0.0166194,0.516671,-0.387993,0.574805,10.7802
40117922,0.85634,0.0190179,0.0165256,0.515798,-0.143701,0.380808,10.5024
40130107,0.856876,0.0193199,0.0164333,0.514898,-0.0455054,0.364043,10.6077
40151946,0.85734,0.0191869,0.0163712,0.514133,-0.0550855,0.299377,10.785
40164107,0.857761,0.018844,0.0161798,0.513448,0.0718506,0.201182,10.5431
40185922,0.858073,0.0189412,0.0160339,0.512928,0.119751,0.203577,10.5
40198111,0.858294,0.0190276,0.0160033,0.512556,0.143701,0.182021,10.694
40219921,0.858396,0.0188363,0.015953,0.512394,0.189207,0.280217,10.6389
40232109,0.858433,0.0189666,0.0159541,0.512327,0.0215552,0.251477,10.5407
40253921,0.858416,0.0191403,0.016024,0.512347,0.0431104,0.347278,10.7538
40266443,0.858339,0.0191015,0.0160542,0.512475,-0.208367,0.112566,10.7131
40288921,0.858274,0.0189184,0.0160212,0.512593,-0.246687,0.304167,10.5383
40301107,0.858256,0.0191515,0.0157546,0.512623,-0.217947,0.335303,10.6101
40323922,0.858256,0.0189668,0.0157094,0.512631,-0.241897,0.268242,10.658
40336106,0.858208,0.0187073,0.0157127,0.512721,-0.167651,0.246687,10.5095
40357922,0.858174,0.0188344,0.0156874,0.512773,-0.165256,0.256267,10.5335
40379921,0.858176,0.0187919,0.0156911,0.512772,-0.205972,0.306563,10.7155
40392112,0.858151,0.018487,0.0157662,0.512822,-0.119751,0.191602,10.6197
40413922,0.858152,0.018525,0.0157203,0.512821,-0.124541,0.184417,10.5263
40426111,0.858136,0.0186335,0.0157346,0.512842,-0.208367,0.280217,10.6556
40447961,0.858127,0.0184616,0.0157184,0.512865,-0.186812,0.251477,10.6628
40460111,0.85813,0.0183501,0.0157086,0.512864,-0.193997,0.289797,10.5574
40481922,0.858106,0.0184341,0.0156886,0.512901,-0.112566,0.220342,10.6101
40494112,0.858087,0.0183953,0.0156942,0.512935,-0.203577,0.318538,10.6389
40515946,0.858057,0.0182113,0.0157293,0.51299,-0.208367,0.229922,10.5886
40528112,0.858024,0.0182978,0.0157019,0.513043,-0.129331,0.205972,10.5646
40549922,0.858027,0.0183956,0.0157267,0.513034,-0.244292,0.258662,10.7203
40571946,0.857996,0.0182476,0.0157485,0.51309,-0.201182,0.263452,10.6868
40584107,0.85799,0.0181064,0.015678,0.513107,-0.160466,0.229922,10.5407
40605922,0.85797,0.018155,0.0156402,0.51314,-0.134121,0.246687,10.5383
40618111,0.858,0.018263,0.0156174,0.513087,-0.110171,0.313748,10.658
40639921,0.858035,0.0181346,0.0156262,0.513032,-0.280217,0.313748,10.6916
40652109,0.858018,0.018022,0.0156117,0.513065,-0.182021,0.268242,10.6245
40673921,0.857973,0.0180698,0.0155757,0.51314,-0.0862207,0.201182,10.5766
40686119,0.857937,0.018137,0.0155843,0.513197,-0.134121,0.217947,10.6317
40707921,0.857876,0.0181138,0.0156286,0.5133,-0.258662,0.292192,10.6053
40720104,0.857869,0.018077,0.0156326,0.513313,-0.196392,0.318538,10.6748
40742921,0.857899,0.0179568,0.0156551,0.513266,-0.234712,0.232317,10.5862
40755106,0.857933,0.0179105,0.0156563,0.51321,-0.126936,0.265847,10.6197
40776922,0.85796,0.0178782,0.0156729,0.513166,-0.198787,0.227527,10.6485
40798921,0.857943,0.0177787,0.0157084,0.513197,-0.179626,0.265847,10.6532
40811112,0.857945,0.0177274,0.0157061,0.513195,-0.213157,0.227527,10.591
40832922,0.857942,0.0177648,0.0157016,0.513199,-0.124541,0.330513,10.5982
40845111,0.85796,0.0177364,0.0157226,0.513169,-0.205972,0.304167,10.67
40866950,0.857977,0.0175474,0.0158167,0.513144,-0.376018,0.311353,10.6245
40879112,0.858073,0.0174414,0.0158361,0.512987,-0.399968,0.237107,10.5646
40900922,0.858252,0.0174508,0.0158978,0.512686,-0.459844,0.292192,10.6389
40913111,0.858488,0.0174425,0.0159982,0.512286,-0.510139,0.323328,10.658
40934946,0.858888,0.0173831,0.0160143,0.511617,-0.447869,0.208367,10.5838
40947111,0.859384,0.0173688,0.0161167,0.510781,-0.531694,0.263452,10.6293
40968922,0.860021,0.0174534,0.0164113,0.509697,-0.668211,0.308958,10.6532
40991922,0.860872,0.017318,0.0164738,0.50826,-0.740061,0.316143,10.67
41004107,0.861933,0.0170887,0.0164701,0.506467,-0.890947,0.256267,10.6149
41025921,0.863125,0.0171495,0.0165856,0.504426,-0.790356,0.325723,10.5191
41038107,0.864446,0.0172406,0.016495,0.50216,-0.464634,0.378413,10.6987
41060936,0.865938,0.0169984,0.0164479,0.499592,-0.546064,0.347278,10.694
41073109,0.867518,0.0168035,0.0165698,0.496846,-0.56762,0.222737,10.4401
41095921,0.869195,0.0169573,0.016655,0.493897,-0.534089,0.220342,10.5383
41108151,0.870994,0.0170248,0.0167243,0.490714,-0.668211,0.239502,10.6987
41129921,0.872907,0.0168211,0.0167903,0.487307,-0.543669,0.311353,10.6245
41142109,0.874854,0.0168894,0.0168041,0.483801,-0.419128,0.261057,10.5742
41164924,0.876875,0.0170431,0.0168253,0.480122,-0.421523,0.438289,10.6796
41177108,0.878942,0.0167794,0.0169499,0.476332,-0.500559,0.399968,10.7155
41198921,0.88102,0.0167053,0.0169836,0.472479,-0.464634,0.268242,10.5407
41211111,0.883255,0.0168888,0.0170624,0.468278,-0.522114,0.361648,10.6317
41232946,0.885606,0.016774,0.0172405,0.463813,-0.754431,0.407153,10.6772
41245108,0.888037,0.0165646,0.0173736,0.459145,-0.699346,0.399968,10.5359
41266922,0.890583,0.0167391,0.0174525,0.454178,-0.840652,0.471819,10.579
41279108,0.893307,0.0166484,0.0175254,0.448797,-1.01309,0.411943,10.6844
41300921,0.896226,0.0163696,0.0176481,0.442945,-0.871787,0.344883,10.6029
41313107,0.899285,0.0164524,0.0176714,0.436697,-0.816702,0.378413,10.5191
41334921,0.902519,0.0166528,0.0177973,0.429961,-0.948428,0.514929,10.6532
41357939,0.905874,0.016547,0.0179852,0.422842,-0.953218,0.608335,10.8329
41370111,0.90945,0.0162638,0.0180909,0.415101,-1.04423,0.524509,10.5431
41391921,0.913163,0.0160771,0.0181834,0.406871,-1.19032,0.404758,10.4616
41404113,0.916981,0.0163278,0.0181006,0.398185,-0.802332,0.404758,10.4832
41425921,0.920856,0.0165782,0.0181007,0.38913,-0.56762,0.627495,10.67
41438113,0.924751,0.0166867,0.0181924,0.379772,-0.603545,0.792751,10.8113
41459921,0.928671,0.0164927,0.0182328,0.370088,-0.462239,0.742456,10.6173
41472111,0.93256,0.016279,0.018209,0.360188,-0.684976,0.59636,10.5455
41493922,0.93638,0.0164399,0.0181261,0.350133,-0.708926,0.531694,10.5239
41506111,0.940145,0.0165423,0.0180144,0.339895,-0.289797,0.656235,10.6197
41527963,0.943843,0.0165345,0.017839,0.329498,-0.167651,0.65384,10.6461
41540111,0.947406,0.0165224,0.0177245,0.319117,-0.0934058,0.548459,10.4976
41561922,0.950832,0.0167128,0.0176653,0.308751,0.0910107,0.538879,10.5646
41584927,0.954131,0.0168345,0.0176197,0.298395,-0.114961,0.61073,10.6149
41597108,0.95731,0.0168318,0.0176258,0.288032,-0.193997,0.66342,10.6556
41618921,0.960347,0.0170518,0.017581,0.277728,-0.299377,0.740061,10.6772
41631111,0.963291,0.0170069,0.01754,0.267345,-0.311353,0.749641,10.7778
41652946,0.966186,0.0164563,0.0175814,0.25672,-0.59157,0.56283,10.6604
41665108,0.968988,0.0161047,0.0176839,0.245949,-0.495769,0.431104,10.3802
41686922,0.971683,0.0162861,0.0175725,0.235072,0.00479004,0.356858,10.4113
41699108,0.974278,0.0165934,0.0173039,0.224071,-0.119751,0.58199,10.6006
41720921,0.97668,0.0165915,0.0173147,0.213358,-0.146096,0.689766,10.6365
41733107,0.978935,0.0165536,0.0171256,0.202776,0.464634,0.627495,10.6101
41754921,0.98101,0.0146744,0.0181002,0.19255,-0.342488,0.969983,10.112
41777938,0.982886,0.0149214,0.0182314,0.1827,0.543669,1.09213,10.2796
41790111,0.984596,0.0164308,0.0186601,0.173067,1.86572,0.498164,10.9311
41802107,0.986185,0.016004,0.0194128,0.163725,-0.419128,0.184417,11.2951
41824931,0.987598,0.0153269,0.0192413,0.155064,0.368833,0.285007,10.4616
41837107,0.988906,0.0156956,0.0192398,0.146455,0.787961,0.869392,10.6077
41858921,0.990137,0.0153578,0.0188457,0.137975,-0.495769,0.505349,10.9095
41880921,0.991252,0.0146884,0.0181894,0.129894,0.0622705,-0.160466,10.1814
41893112,0.992218,0.015274,0.0178449,0.122278,0.759221,0.285007,10.4521
41914922,0.993105,0.0157066,0.0172163,0.114888,0.62989,0.859812,11.0867
41927111,0.99389,0.0150139,0.0170313,0.108014,0.313748,0.143701,10.6053
41948922,0.99457,0.0149732,0.0173864,0.101511,0.397573,0.241897,10.3826
41961111,0.99521,0.0155139,0.017056,0.0949985,0.222737,0.241897,10.7035
41982921,0.995808,0.0152784,0.016981,0.0885725,-0.627495,0.443079,10.785
41995111,0.996343,0.0147972,0.0171516,0.0823913,-0.282612,0.268242,10.3634
42017945,0.996835,0.0150042,0.0167526,0.076247,0.433499,0.0622705,10.4592
42030112,0.997272,0.0153459,0.016283,0.0703442,0.00958008,0.392783,10.8161
42051922,0.99766,0.015138,0.0164002,0.0646182,0.167651,0.488584,10.7945
42064113,0.998005,0.0148423,0.0164017,0.0591372,0.390388,0.215552,10.5646
42085921,0.998303,0.0148435,0.0160896,0.0539628,0.160466,0.143701,10.5886
42107922,0.998557,0.0147222,0.0161073,0.0490616,0.0766406,0.150886,10.5479
42120108,0.998773,0.0148016,0.0159837,0.0444656,0.201182,0.165256,10.5886
42142921,0.998958,0.0153263,0.0154728,0.0401076,0.409548,0.500559,10.8305
42155107,0.99913,0.0147502,0.0154399,0.0358362,-0.126936,0.282612,10.8257
42176921,0.999273,0.0143509,0.0154337,0.0317716,-0.150886,0.0934058,10.3108
42189108,0.999389,0.0147801,0.0153486,0.027718,0.0886157,0.136516,10.4928
42210922,0.999493,0.0148899,0.0151495,0.0237352,-0.423918,0.366438,10.852
42223108,0.999583,0.0143974,0.0154323,0.0197031,-0.304167,0.222737,10.6173
42244931,0.999653,0.0144035,0.0155403,0.0156195,-0.114961,0.138911,10.4712
42257108,0.999707,0.0147532,0.0152969,0.0115974,-0.433499,0.320933,10.7443
42278921,0.999749,0.0145014,0.0153927,0.00744875,-0.438289,0.265847,10.7371
42291111,0.999773,0.0142256,0.015546,0.00311546,-0.479004,0.241897,10.4521
42312946,0.999777,0.0143725,0.0154076,-0.0013616,-0.548459,0.275427,10.6245
42325406,0.999765,0.0141862,0.0152168,-0.00609463,-0.510139,0.193997,10.7179
42347922,0.999726,0.0139518,0.0153286,-0.0108402,-0.61552,0.275427,10.4592
42360108,0.999663,0.0142172,0.0149744,-0.0157618,-0.201182,0.256267,10.5742
42381921,0.999576,0.0142109,0.014697,-0.0207501,-0.318538,0.364043,10.761
42403922,0.999456,0.0137989,0.0149829,-0.025923,-0.500559,0.359253,10.6964
42416111,0.99931,0.0135976,0.0149239,-0.0311714,-0.308958,0.110171,10.4161
42437936,0.999129,0.0137867,0.014834,-0.0364911,-0.407153,0.229922,10.6772
42450108,0.998926,0.013741,0.0146708,-0.0417501,-0.373623,0.320933,10.6365
42471922,0.99869,0.0136671,0.0145542,-0.0471227,-0.270637,0.308958,10.5982
42484113,0.998421,0.0134875,0.0144955,-0.0525778,-0.306563,0.229922,10.6604
42505921,0.998115,0.0133724,0.0143572,-0.0581476,-0.277822,0.0670606,10.4832
42518109,0.997771,0.0136945,0.014277,-0.0637306,-0.277822,0.299377,10.5311
42539921,0.997393,0.0141355,0.0139566,-0.0693709,-0.239502,0.58199,10.9119
42552111,0.996977,0.0135978,0.0142888,-0.075158,-0.323328,0.392783,10.9047
42573922,0.99652,0.0130002,0.0144741,-0.0810543,-0.392783,0.122146,10.3515
42595921,0.996005,0.0133899,0.0143353,-0.0871127,-0.529299,0.122146,10.4042
42608129,0.995445,0.0135472,0.0141699,-0.0932963,-0.579595,0.313748,10.8688
42629921,0.994843,0.0131288,0.0141446,-0.0995779,-0.431104,0.261057,10.555
42642109,0.994202,0.0131718,0.0139154,-0.105811,-0.148491,0.184417,10.3874
42664930,0.993534,0.0134303,0.0135084,-0.111927,0.00958008,0.337698,10.682
42677108,0.992754,0.00515234,0.0262089,-0.117156,0.0622705,0.270637,8.56718
42698921,0.992477,-0.00121417,0.0147232,-0.12154,-2.25371,-8.05445,4.29686
42711107,0.991436,0.0140615,0.0306538,-0.126164,1.14721,0.771196,10.0281
42732946,0.990591,0.0109721,0.0364037,-0.131466,-1.56874,-0.845442,16.4109
42745107,0.98998,0.00498272,0.0319165,-0.137462,-0.318538,0.419128,7.29063
42766922,0.989118,0.00989234,0.0394815,-0.141382,0.356858,0.531694,12.2363
42779111,0.988511,0.00837722,0.0379225,-0.146073,1.48731,1.41067,12.7752
42800921,0.987803,0.00444752,0.0378091,-0.150984,-0.665815,-0.57241,9.30964
42822922,0.987315,0.00723018,0.0380633,-0.153971,-0.00479004,-0.687371,10.0569
42835111,0.986788,0.00744293,0.0377211,-0.15739,1.9711,1.02267,11.9777
42856921,0.986346,0.00439053,0.0366519,-0.160496,-0.222737,-0.196392,10.5263
42869111,0.986008,0.00560679,0.0376722,-0.162291,-0.474214,0.0335303,9.29047
42890921,0.985704,0.00689812,0.0370236,-0.164226,1.01549,0.435894,11.3622
42903108,0.985422,0.00575156,0.0357722,-0.166224,-0.522114,0.378413,11.1298
42924921,0.985109,0.0053619,0.037256,-0.167759,-0.783171,0.119751,9.91078
42937109,0.984921,0.0062427,0.0366968,-0.168955,0.447869,0.318538,10.785
