timestamp,gyro_x,gyro_y,gyro_z,mag_x,mag_y,mag_z,accel_x,accel_y,accel_z
17408376,-0.00958738,0.00958738,0.00639159,33,-16.65,45,0.122146,0.425116,10.0769
17431203,-0.00532632,0.0127832,0.00639159,33.45,-17.7,45.3,0.00479004,0.475411,10.0793
17443379,-0.00639159,0.00958738,0.00426106,32.4,-16.2,45,0.0526904,0.473016,10.1583
17466217,-0.00319579,0.00852211,0.00745685,34.35,-16.8,44.1,0.0191602,0.508942,10.0721
17479379,-0.00319579,0.00958738,0.00745685,33.3,-17.1,43.35,0.0311353,0.437091,10.0984
17502203,-0.00745685,0.015979,0.00639159,32.55,-17.1,44.85,0.00718506,0.537682,10.1176
17514382,-0.00852211,0.00852211,0.00852211,33.9,-17.55,44.85,0.00239502,0.461041,10.1415
17537209,-0.00958738,0.0127832,0.00745685,32.1,-17.1,43.8,0.0311353,0.487386,10.1176
17550379,-0.00213053,0.00852211,0.00639159,32.7,-15.15,45,0.0287402,0.463436,10.0865
17573203,-0.00319579,0.0127832,0.00852211,32.55,-16.05,44.4,0.0287402,0.439486,10.1559
17586385,-0.00319579,0.00852211,0.00426106,32.85,-16.8,44.85,0.0263452,0.451461,10.12
17609203,-0.00639159,0.00745685,0.00852211,32.55,-16.8,44.1,0.0910107,0.504152,10.1104
17622382,-0.00745685,0.0106526,0.00213053,33.6,-16.8,45.15,0.00239502,0.477806,10.1703
17635379,-0.00958738,0.0149137,0.00852211,32.85,-16.8,44.4,0.0215552,0.441881,10.108
17658210,-0.00852211,0.00745685,0.00958738,31.5,-16.05,45.45,0.110171,0.461041,10.12
17671379,-0.00213053,0.0138484,0,33.75,-16.2,43.95,0.0455054,0.487386,10.0936
17694203,-0.00745685,0.00958738,0.00745685,32.55,-17.1,45.45,0.0263452,0.470621,10.1487
17706384,-0.00958738,0.00745685,0.00852211,32.4,-16.95,45.3,0.0311353,0.429906,10.1511
17729203,-0.00426106,0.0106526,0.0106526,33.75,-16.65,45.3,0.0167651,0.465831,10.0314
17742382,0,0.00745685,0.00426106,33.3,-16.35,44.85,0.0550855,0.441881,10.132
17765217,0.00213053,0.00852211,0.00745685,33.6,-17.1,43.35,0.134121,0.451461,10.1128
17778378,-0.0149137,0.00426106,0.00639159,33.3,-16.35,44.1,0.0550855,0.463436,10.0865
17801203,-0.00745685,0.00745685,0.00213053,32.85,-17.55,45.45,0.105381,0.492177,10.1655
17813379,-0.00639159,0.00852211,0.00639159,31.65,-15.9,44.25,0.0742456,0.465831,10.0841
17836209,-0.00745685,0.00532632,0,33,-15.15,45.3,0.0742456,0.441881,10.1248
17849379,-0.00213053,0.00532632,0.00106526,31.95,-16.65,45,0.0598755,0.398771,10.0697
17862382,-0.00958738,0.00532632,0.00426106,33.45,-17.7,44.25,0.143701,0.487386,10.0625
17885217,-0.0117179,0.00532632,0.00532632,33.3,-16.8,44.4,0.119751,0.482596,10.0889
17898377,-0.00319579,0.00532632,0.00426106,32.4,-16.2,44.7,0.0886157,0.513732,10.1032
17921203,-0.00852211,0.00745685,0.00319579,31.8,-16.35,43.35,0.0335303,0.487386,10.12
17933379,-0.00532632,0.0117179,0.00319579,32.7,-15.45,44.25,0.0838257,0.475411,10.1248
17956209,-0.00745685,0.00745685,0.00426106,32.4,-16.2,43.95,0.0646655,0.489782,10.1176
17968379,-0.0106526,0.0106526,0.00639159,33.3,-16.05,43.8,0.0479004,0.475411,10.1799
17991203,-0.00958738,0.00639159,0.00639159,32.85,-17.55,44.4,-0.0622705,0.475411,10.0434
18003384,-0.015979,0.0223706,0.015979,32.4,-17.4,44.25,-0.0359253,0.382006,10.2517
18026203,0.00532632,0.0234358,0.0170442,33.45,-15.9,44.7,-0.0311353,0.499362,10.0194
18038382,-0.0266316,0.0223706,0.0149137,32.55,-17.1,44.1,0.138911,0.532892,10.1583
18061217,0.00213053,0.015979,0.0127832,33.3,-18.3,44.4,0.198787,0.456251,10.1392
18074377,-0.0170442,0.0106526,0.00745685,33.6,-17.1,44.85,-0.0718506,0.544867,10.096
18097203,-0.00106526,0.0245011,0.0170442,32.7,-18,45,-0.0431104,0.499362,10.2469
18109379,-0.00213053,0.0234358,0.0234358,33.6,-15.6,44.1,0.0502954,0.506547,10.0338
18132209,-0.00852211,0.0255663,0.0234358,34.35,-17.55,43.8,0.198787,0.542472,10.2158
18145379,0.0106526,0.0181095,0.0138484,33.6,-14.85,44.4,0.186812,0.559237,10.0984
18158382,-0.015979,0.0106526,0.00639159,33.9,-17.1,44.4,0.0790356,0.453856,10.0505
18181203,0.00106526,0.00426106,0.00532632,33.45,-18,45,0.0526904,0.362845,10.1607
18193379,-0.00852211,0.00532632,0.00532632,33,-16.2,45,-0.0119751,0.504152,10.0505
18216203,-0.00852211,0.00532632,0,33,-16.95,45.6,0.0239502,0.449066,10.1727
18228379,0.00213053,0.00745685,-0.00106526,33.9,-16.35,44.85,0.0335303,0.463436,10.0745
18251209,-0.00852211,0.00745685,-0.00106526,33,-15.9,44.7,-0.0598755,0.463436,10.1272
18264382,0.00106526,0.0106526,0.00426106,32.55,-17.55,45.45,0,0.432301,10.0889
18287203,-0.00958738,0.00745685,0.00745685,32.55,-16.05,44.85,-0.0646655,0.456251,10.0625
18299403,-0.00745685,0.00852211,0.00745685,33.45,-16.95,44.7,0.0311353,0.439486,10.1224
18322203,-0.00213053,0.00852211,0.00319579,32.1,-15.3,44.1,-0.0335303,0.501757,10.0817
18335379,-0.00852211,0.0127832,0.00106526,32.4,-15.45,44.25,-0.0502954,0.451461,10.0362
18358257,-0.00426106,0.00745685,0.00852211,32.55,-17.85,45.9,-0.105381,0.473016,10.1248
18371379,-0.0149137,0.00852211,0.00532632,34.35,-16.8,45.15,-0.215552,0.427511,10.0529
18394203,-0.00426106,0.00958738,0.00213053,32.85,-16.35,44.85,-0.222737,0.528102,10.1415
18406379,0.00213053,0.0138484,0.00426106,32.85,-16.05,44.4,-0.186812,0.449066,10.0913
18429209,-0.00852211,0.0170442,0.00213053,33.45,-16.95,44.7,-0.148491,0.451461,10.0936
18441382,0.00213053,0.00639159,0.00213053,32.85,-17.1,45.15,-0.0958008,0.422721,10.1296
18464203,-0.00532632,0.00852211,0.00852211,33.9,-17.55,43.35,-0.143701,0.480201,10.0577
18476382,-0.00426106,0.0138484,0.0106526,32.7,-16.95,44.7,-0.0335303,0.439486,10.1104
18499204,-0.00639159,0.00958738,0.00639159,31.95,-16.2,44.25,0,0.439486,10.0745
18511372,-0.00639159,0,0.00532632,31.95,-17.7,43.95,-0.105381,0.439486,10.1463
18534203,-0.00532632,0,0.00958738,32.85,-15.3,42.75,-0.141306,0.403561,10.1847
18546379,-0.00319579,0.00639159,0.00213053,33.3,-16.05,44.1,-0.00479004,0.528102,10.0984
18569203,-0.0106526,0.00745685,0,31.8,-17.1,44.1,-0.0502954,0.384401,10.0673
18581372,-0.00639159,0.00852211,0.00745685,33.45,-16.2,44.25,-0.0335303,0.499362,10.1368
18604217,-0.00532632,0.0106526,0.00532632,32.4,-16.65,44.7,-0.0359253,0.417931,10.132
18617379,-0.00639159,0.00852211,0.0106526,31.8,-17.1,45.45,-0.0934058,0.449066,10.1463
18630373,-0.0138484,0.0117179,0.0117179,32.4,-16.65,46.05,-0.0263452,0.518522,10.0601
18653203,-0.0117179,0.015979,0.00852211,32.55,-16.05,43.35,0.0431104,0.465831,10.211
18666404,0.00745685,0.0106526,0.0127832,32.55,-17.1,45.9,-0.0191602,0.477806,10.0002
18689203,-0.0149137,0.0127832,0.00958738,33.75,-15.9,44.25,0.0119751,0.429906,10.1032
18702376,0.00213053,0.00745685,0.0149137,32.4,-15.9,43.2,-0.00479004,0.511337,10.1511
18725217,-0.00532632,0.0127832,0.00958738,32.85,-16.05,43.8,0.0502954,0.465831,10.0936
18738378,-0.00319579,0.00958738,0.00745685,33.75,-16.2,44.7,0.0502954,0.482596,10.1487
18761203,-0.00106526,0.0106526,0.00639159,32.4,-16.65,43.95,0.0479004,0.437091,10.0697
18774378,-0.00639159,0.0106526,0.00852211,32.55,-16.05,45.15,0.0742456,0.480201,10.1128
18787380,0.00213053,0.00426106,0.0138484,32.7,-16.95,45,0.0526904,0.516127,10.108
18810203,-0.00319579,0.0117179,0.00639159,31.95,-16.65,43.95,0.0263452,0.530497,10.1463
18822375,0.0117179,0.0117179,0.00852211,33.3,-16.35,43.8,0.0143701,0.549657,10.1463
18845203,-0.0106526,0.02024,0.00426106,32.55,-17.1,44.1,0.0119751,0.468226,9.94036
18857376,-0.0223706,0.0213053,0.0117179,31.8,-17.1,44.4,0.0239502,0.453856,10.1511
18880203,0.00319579,0.0234358,0.0138484,33,-16.2,43.95,0.105381,0.580792,10.1607
18892375,-0.00319579,0.00639159,-0.00745685,32.85,-14.85,44.4,0.253872,0.461041,9.99784
18915209,0.00958738,0.00319579,-0.0106526,34.2,-16.95,43.95,0.170046,0.398771,10.0865
18928378,0.0181095,-0.00213053,-0.00852211,32.55,-16.05,44.4,0.0622705,0.530497,10.1056
18951203,-0.00106526,0.0106526,-0.00745685,33.6,-16.35,45.45,0.0502954,0.439486,10.1272
18963380,0.0106526,0.0138484,0,33,-16.65,43.65,0.0263452,0.415536,10.1176
18986203,-0.00639159,0.0170442,0.00213053,33.3,-17.85,43.8,0.282612,0.487386,10.0553
18998376,-0.0276969,0.02024,-0.00852211,32.85,-14.85,43.8,0.196392,0.473016,10.1224
19021217,0.00319579,0.00426106,-0.00532632,32.4,-16.65,44.7,0.126936,0.501757,10.1631
19034378,-0.00852211,-0.00745685,-0.00426106,33.3,-14.85,43.8,0.0502954,0.552052,10.0817
19057203,-0.0245011,-0.00639159,-0.0213053,33,-15.45,43.65,0.191602,0.463436,10.1966
19070378,-0.0181095,-0.02024,-0.0319579,33,-16.95,45.3,-0.198787,0.374821,10.1152
19083380,0,-0.0106526,-0.0213053,32.1,-17.1,44.85,-0.514929,0.367636,9.99545
19106203,0.00213053,0.00213053,-0.00958738,33,-15.9,43.95,-0.225132,0.35566,10.0984
19118375,-0.00213053,0,-0.00745685,31.8,-16.8,43.8,-0.102986,0.420326,9.96192
19141217,0.00745685,-0.00532632,-0.00532632,31.95,-16.65,44.7,-0.136516,0.456251,10.132
19154379,-0.00426106,-0.00213053,-0.00319579,32.1,-16.8,44.1,-0.100591,0.544867,10.0721
19177203,-0.0138484,0.00532632,0.00319579,32.55,-16.05,45.15,-0.155676,0.499362,10.1439
19190377,0.00426106,0.00426106,0.00745685,32.1,-16.35,44.1,-0.141306,0.30297,10.0697
19213209,-0.015979,0.00532632,0.00319579,31.95,-16.2,44.25,-0.296982,0.398771,10.0913
19226382,0.0138484,-0.00213053,0.00213053,32.7,-16.95,45.3,0.0215552,0.571212,10.1894
19249203,-0.00532632,0.00106526,0.00639159,33.3,-17.1,43.35,0.0335303,0.535287,9.99305
19261409,-0.00639159,0.00532632,0.00639159,33,-17.4,44.25,-0.0311353,0.494572,10.1128
19284203,0.0149137,0.00213053,0.0117179,33.3,-14.85,44.4,-0.0694556,0.446671,10.1056
19296377,-0.0127832,0.00106526,0.0106526,33.45,-16.65,44.7,-0.0694556,0.477806,10.0913
19319244,0.00106526,0.00532632,0.00958738,32.55,-15.3,44.85,0.112566,0.564027,10.2038
19332377,0,0.00958738,0.0181095,34.65,-16.8,44.4,0.225132,0.552052,10.0793
19345376,-0.0191748,0.00639159,0.00639159,33.6,-16.8,44.4,0.100591,0.444276,10.1775
19368203,0.0117179,0.00852211,0.00426106,33,-16.2,43.65,-0.0215552,0.377216,10.1224
19380422,-0.00426106,0.00745685,0.00958738,31.95,-16.65,44.7,0.0167651,0.372426,10.0721
19403203,-0.00213053,0.0138484,0.00745685,31.65,-16.65,44.7,-0.0958008,0.403561,10.2014
19415376,-0.00319579,0.0223706,0.0149137,32.85,-16.8,44.4,-0.158071,0.451461,10.0505
19438231,-0.0266316,0.0181095,0.00958738,32.85,-16.8,44.1,-0.213157,0.473016,10.1583
19451378,0.0213053,0.0117179,0.0117179,33,-15.45,43.65,-0.234712,0.439486,10.0457
19474203,-0.0138484,0.015979,0.0170442,33.75,-17.4,44.7,-0.217947,0.444276,10.0362
19486376,0.00426106,0.0223706,0.0181095,33,-14.4,43.95,-0.258662,0.422721,10.2062
19509217,-0.00852211,0.00106526,0.00106526,34.2,-16.2,43.65,-0.146096,0.370031,9.99305
19521381,-0.0234358,0.00319579,0.00852211,32.1,-17.1,44.85,-0.349673,0.475411,10.1942
19544203,0.0372843,0.0266316,0.0298274,32.7,-16.95,44.25,-0.514929,0.726888,9.97868
19556379,0.00532632,0.0319579,0.0383495,32.85,-16.05,45.9,-0.385598,0.408351,10.0505
19579210,0.0340885,0.0319579,0.0330232,33.6,-15.6,44.85,-0.00718506,0.290995,10.0625
19592376,0.00106526,0.0181095,0.0234358,33,-16.2,44.7,0.246687,0.573607,10.1224
19615203,0.00852211,0.036219,0.0223706,32.55,-17.55,44.4,0.320933,0.604742,10.2086
19628380,-0.015979,0.0223706,0.0170442,32.1,-15.6,43.35,0.438289,0.425116,9.98826
19641675,-0.0170442,0.0191748,0.00852211,32.85,-16.35,44.85,0.316143,0.480201,10.096
19664203,-0.00106526,0,0.00639159,32.55,-14.85,44.4,0.306563,0.549657,10.1751
19676378,-0.0372843,0.0106526,0.00213053,33.75,-16.65,45,0.205972,0.695753,10.1368
19699210,-0.00213053,0.0181095,0.00745685,33.75,-16.2,44.7,0.366438,0.604742,10.2661
19712375,-0.00852211,0.00213053,-0.00106526,32.4,-15.9,43.95,0.409548,0.681383,10.0697
19735203,0,0.00852211,-0.00213053,32.1,-17.55,45.15,0.421523,0.628693,10.2182
19748380,-0.00319579,0.00532632,-0.00319579,32.55,-15.3,44.1,0.201182,0.3365,10.0841
19771203,-0.0223706,0.0191748,0.00106526,33.3,-16.35,45.15,0.0191602,0.425116,10.0865
19783375,0.00639159,0.0170442,0.00426106,31.05,-15.3,44.4,0.0383203,0.465831,10.1727
19806203,-0.0138484,0.0255663,0.00532632,31.8,-17.1,44.4,0.0407153,0.554447,10.0026
19818375,-0.0117179,0.0170442,-0.00213053,33.45,-16.2,45.3,0.0263452,0.429906,10.2182
19841203,-0.00213053,0.00852211,0.00426106,31.65,-16.2,44.25,0.0311353,0.506547,10.0601
19853376,-0.0223706,-0.00106526,-0.00213053,32.85,-16.05,44.85,0.0790356,0.396376,10.0625
19876209,0.0117179,-0.00426106,0.00106526,31.95,-15.45,46.35,0.0335303,0.492177,10.1535
19889377,-0.0138484,0.00852211,0.00852211,33,-14.7,44.7,-0.0766406,0.33171,10.0649
19912203,-0.00213053,-0.00426106,0.00319579,33.45,-15.9,43.65,-0.208367,0.389191,10.0218
19925384,-0.00639159,-0.00958738,0.0117179,32.7,-16.65,43.95,-0.0407153,0.408351,10.1918
19938377,0.00745685,0,0.0127832,33.3,-15.3,44.85,-0.0215552,0.592767,10.0362
19961203,-0.0138484,-0.00319579,0.0106526,31.5,-15.6,45.15,-0.117356,0.410746,10.1607
19973375,-0.00958738,-0.00426106,0.0138484,33.9,-17.1,44.1,-0.203577,0.408351,10.1032
19996209,-0.0170442,-0.0138484,0.00319579,32.85,-16.8,44.85,-0.378413,0.382006,10.0218
20009378,0.0106526,0.00852211,0.0117179,33.3,-16.35,44.85,-0.301772,0.429906,10.1966
20032203,0.0170442,0.00532632,0.0191748,33.3,-15.6,45.9,-0.229922,0.30297,10.0314
20044382,0.00958738,0,0.015979,33,-16.65,45.6,-0.0766406,0.29818,10.1032
20067203,0.015979,0.00106526,0.0138484,33.3,-15.6,44.1,0.201182,0.393981,10.041
20080378,-0.0245011,-0.00106526,0.00426106,32.7,-15.9,44.25,0.105381,0.417931,10.0026
20103220,-0.00958738,-0.00852211,0.00319579,32.85,-15.6,44.1,-0.0191602,0.523312,10.0529
20116376,0.00958738,-0.0149137,-0.00745685,31.8,-16.8,43.8,-0.0838257,0.609532,10.0984
20139203,-0.00426106,-0.0149137,-0.00319579,33.3,-15.6,44.4,-0.162861,0.568817,10.0793
20151376,0.00426106,-0.0149137,0.00532632,31.35,-16.2,43.95,-0.186812,0.499362,10.0793
20174209,-0.00213053,-0.015979,0.00426106,33.3,-16.8,45.15,-0.122146,0.463436,10.0817
20187377,-0.00745685,-0.0117179,0.00745685,31.5,-16.8,45.9,0.00718506,0.473016,10.132
20200377,0,0.00106526,0.00958738,32.85,-16.05,44.85,-0.112566,0.393981,10.108
20223220,-0.00319579,0.00958738,0.0117179,31.95,-15.45,44.25,-0.165256,0.465831,10.1559
20236377,0.00532632,0,0.0117179,30.6,-16.95,43.65,-0.0742456,0.451461,10.1128
20259203,-0.0127832,0.00532632,0.00213053,33.45,-16.95,45,-0.239502,0.429906,10.041
20271375,-0.0149137,0.00426106,0.0127832,33.3,-15.6,43.8,-0.0574805,0.473016,10.0625
20294209,-0.00745685,0.00639159,0.00639159,30.9,-16.65,45.3,0.0646655,0.592767,10.0434
20307378,-0.02024,0.0245011,0.00639159,30.45,-15.6,44.1,0.160466,0.417931,10.132
20330203,0.00426106,0.015979,0.0106526,32.85,-17.1,44.4,0.158071,0.655038,10.1152
20343382,-0.00106526,0.00852211,-0.00213053,33.45,-16.65,45,0.340093,0.616718,10.1751
20366203,-0.00852211,-0.00745685,-0.00958738,32.4,-15.9,44.7,0.213157,0.473016,10.0793
20378378,-0.00106526,-0.015979,-0.00852211,32.85,-16.05,44.1,-0.0287402,0.568817,10.1942
20401220,0.00319579,-0.0106526,-0.00319579,32.55,-15.3,45.45,0.0143701,0.535287,10.0841
20414376,-0.0138484,-0.00532632,-0.00639159,33,-16.65,46.05,0.117356,0.36045,10.0865
20427376,-0.00319579,-0.00532632,-0.00958738,33,-16.65,45.3,-0.00239502,0.508942,10.0793
20450203,-0.00213053,-0.00426106,-0.00319579,33.45,-16.65,45,-0.179626,0.432301,10.0889
20462384,-0.00639159,0.00426106,0.00106526,33,-15.9,44.7,-0.177231,0.427511,10.0505
20485203,-0.0138484,0,0.00213053,31.8,-16.05,44.85,-0.215552,0.35566,10.1176
20497377,-0.00639159,0,0.00958738,33.45,-15.9,44.7,-0.126936,0.463436,10.0817
20520248,-0.0127832,0.00319579,0.0127832,32.1,-16.35,45.45,-0.160466,0.437091,10.0817
20533384,-0.0170442,0.0138484,0.02024,31.95,-16.65,43.2,-0.155676,0.506547,10.1152
20556203,-0.00852211,0.015979,0.0191748,32.55,-16.35,45.15,-0.158071,0.561632,10.0889
20568375,-0.0149137,0.00639159,0.0138484,33,-16.2,45,-0.0359253,0.456251,10.0625
20591213,-0.0117179,0.02024,0.015979,32.7,-16.2,45,-0.184417,0.379611,10.1032
20604378,-0.0181095,0.015979,0.0170442,33.45,-16.2,44.25,-0.129331,0.470621,10.1415
20627203,-0.00852211,0.0191748,0.0213053,33.3,-16.35,44.85,0.0407153,0.456251,10.096
20639462,-0.00639159,0.0127832,0.00852211,31.65,-17.7,44.25,0.191602,0.429906,10.1272
20662203,0.00532632,0.00532632,-0.00106526,32.85,-16.35,46.2,0.160466,0.415536,10.1631
20675377,0.0191748,0.0106526,0.00319579,32.4,-16.65,43.95,-0.0239502,0.415536,10.1152
20688672,0.00106526,0.00426106,0.00213053,31.65,-16.95,45.3,-0.0263452,0.396376,10.0936
20712213,0.00532632,-0.00319579,0.00319579,32.85,-16.05,44.4,-0.0359253,0.429906,10.1056
20725378,0,0.00319579,0.00852211,33.9,-17.1,44.1,-0.0646655,0.473016,10.0266
20748203,-0.00745685,0.00319579,0.0106526,32.1,-16.8,44.4,-0.0790356,0.473016,10.1152
20761382,0.00426106,0.00532632,0.0117179,33.9,-16.35,45.9,-0.0287402,0.484991,10.1224
20784203,-0.00106526,0.00958738,0.0106526,33.45,-16.2,44.25,-0.0502954,0.444276,10.1152
20796378,-0.00319579,0.0106526,0.0181095,34.5,-15.15,44.7,-0.117356,0.384401,10.0649
20819242,-0.0181095,-0.00319579,0.00745685,33.9,-17.55,43.35,0.0407153,0.382006,10.0673
20832376,-0.072438,0.00745685,-0.00532632,31.8,-16.35,43.8,0.0455054,0.499362,10.029
20845677,0.00213053,-0.00532632,0.0127832,32.1,-15.6,45.45,0.215552,0.353265,10.0936
20868203,-0.0234358,-0.00213053,0.00852211,33.45,-15.45,44.7,0.0886157,0.300575,10.0553
20880416,-0.0319579,0.00639159,0.015979,33.6,-15.6,44.85,0.146096,0.401166,10.1655
20903203,-0.0298274,0.0138484,0.0106526,32.1,-15.3,44.85,0.342488,0.451461,10.0673
20916377,-0.00639159,0.00532632,0.0106526,32.1,-16.8,45.15,0.349673,0.473016,10.0984
20939203,-0.00106526,0.00106526,0.00426106,32.4,-16.2,45.6,0.340093,0.449066,10.1128
20951378,-0.0138484,0.00745685,0.00426106,33.3,-16.8,44.1,0.342488,0.513732,10.1104
20974203,-0.00958738,0.00639159,-0.00213053,32.55,-16.35,45.45,0.160466,0.504152,10.1128
20986377,-0.00852211,0.0106526,0.0138484,33.6,-14.85,44.1,0.0215552,0.494572,10.0865
21009217,-0.0245011,0.0223706,0.0127832,32.1,-16.8,44.85,0.296982,0.370031,10.1535
21022378,0.00426106,0.00106526,0.00852211,33.45,-16.95,44.25,0.0718506,0.484991,10.0793
21045203,-0.0223706,0.015979,-0.00213053,31.95,-15.9,45,-0.0191602,0.382006,10.0122
21057389,-0.00319579,0.00639159,0.00319579,33.6,-16.05,44.4,-0.0622705,0.458646,10.1583
21080204,-0.0138484,0.0138484,0.00213053,32.4,-16.95,45,0.00718506,0.487386,10.0098
21092372,-0.0149137,0.0106526,0.00532632,33,-15.45,44.7,-0.00718506,0.449066,10.1439
21115203,-0.00639159,0.0170442,0.00426106,32.7,-16.95,44.25,0.0239502,0.523312,10.0577
21128380,-0.0170442,0.0245011,0.00958738,33.45,-15.45,44.25,-0.186812,0.465831,10.0577
21151203,0.00958738,0.0319579,0.0181095,33.75,-16.2,45.6,-0.186812,0.401166,10.1104
21163375,-0.0106526,0.0266316,0.015979,32.55,-16.35,45.45,-0.196392,0.367636,10.0242
21186220,-0.00532632,0.0223706,0.0170442,33.3,-17.1,44.85,-0.138911,0.465831,10.0865
21199376,-0.00958738,0.0138484,0.0149137,31.8,-17.1,44.85,0.0910107,0.487386,9.99066
21212377,-0.0276969,0.0170442,0.00958738,33.45,-16.65,45,0.203577,0.377216,10.017
21235203,-0.0266316,0.00852211,0,32.4,-16.2,45.3,0.253872,0.329315,10.1463
21247382,-0.0106526,0.0149137,-0.00213053,32.4,-16.95,44.7,0.117356,0.580792,10.0314
21270203,0.00213053,0.00426106,0.00532632,31.95,-16.2,44.7,0.0790356,0.465831,10.1152
21282378,0.00639159,0.0106526,0.00426106,32.4,-16.95,45.6,0.193997,0.480201,10.1535
21305220,-0.00958738,0.0138484,0.00639159,33.3,-17.55,44.4,0.280217,0.496967,10.0697
21318376,-0.0106526,0.0149137,0.00213053,32.55,-16.05,45.15,0.186812,0.501757,10.2302
21341203,-0.00426106,0.0191748,0.00106526,31.95,-15.9,43.95,0.105381,0.461041,10.0936
21353376,-0.0266316,0.0191748,0.00213053,32.1,-16.35,43.8,0.122146,0.473016,10.132
21376209,-0.00852211,0.015979,0.00319579,32.85,-17.1,44.85,-0.0335303,0.484991,10.1104
21389377,-0.0213053,0.0255663,0.00426106,33.45,-15.9,43.95,-0.0335303,0.408351,10.1272
21412203,-0.00639159,0.02024,0.00852211,33.6,-17.55,45.15,0.0335303,0.511337,10.1296
21424384,-0.0106526,0.00958738,0.00639159,33.45,-16.2,45,0.0526904,0.449066,10.1559
21447203,-0.00745685,0.0308927,0.00852211,32.7,-16.65,44.25,-0.0287402,0.489782,10.108
21459377,-0.00426106,0.0170442,-0.00745685,33,-15.45,44.7,0.00479004,0.580792,10.0865
21482220,0.0149137,0.0298274,0.0106526,32.55,-16.05,43.8,-0.193997,0.525707,10.0553
21495377,0.0245011,0.0191748,0.00532632,32.4,-15.9,44.7,0.0335303,0.492177,10.0553
21518203,-0.0266316,0.0170442,0,32.1,-17.1,45.15,0.282612,0.30776,10.0936
21530375,-0.00319579,0.00745685,0.00639159,33,-15.9,45.3,0.0838257,0.595162,10.1751
21543679,-0.00852211,0.0170442,0.00426106,33,-16.65,45.3,0.174836,0.34608,10.0769
21566203,-0.00106526,0.00745685,0.00426106,34.2,-17.4,45.3,0.119751,0.564027,10.1272
21578377,-0.00958738,0.0181095,0.00319579,33.45,-16.65,44.7,0.184417,0.382006,10.1392
21601220,-0.0319579,0.00319579,0.00213053,33.9,-16.8,45.15,0.126936,0.398771,10.0362
21614376,-0.00106526,-0.00106526,-0.00532632,32.7,-16.95,44.25,0.0167651,0.585582,10.1823
21637203,0.00852211,0.0117179,-0.00106526,33.75,-16.65,43.95,-0.112566,0.547262,10.108
21649375,-0.02024,0.00958738,-0.00532632,32.4,-16.2,44.25,0,0.32213,10.0889
21672209,-0.00319579,0.0181095,0.00426106,32.7,-17.7,43.95,-0.00479004,0.432301,10.0362
21685378,0.00319579,0.00639159,0.00745685,33,-16.2,45.3,0.0886157,0.566422,10.0984
21708203,0.00532632,0.0223706,0.00958738,33.3,-17.1,44.1,0.0766406,0.513732,10.0625
21721382,-0.0117179,0.0191748,0.00745685,33.3,-15.6,44.4,0.0263452,0.420326,10.1559
21744203,-0.00106526,0.0223706,0.00639159,32.7,-15.9,45.6,-0.0263452,0.444276,10.0529
21756378,-0.0127832,0.0106526,0.00852211,33,-17.4,44.25,0.0934058,0.451461,10.108
21779230,-0.00852211,0.0106526,0.00532632,32.55,-16.8,44.85,0.107776,0.432301,10.1583
21792376,0.00532632,0.02024,0.00639159,32.4,-15.9,44.7,0.00239502,0.552052,10.0601
21805377,-0.0170442,0.0223706,0.00745685,32.85,-17.1,44.85,0,0.417931,10.0817
21828203,-0.00852211,0.0266316,0.00958738,32.7,-16.2,46.05,-0.134121,0.528102,10.0936
21840385,-0.00958738,0.02024,0.0181095,31.35,-16.2,44.7,-0.182021,0.473016,10.12
21863203,-0.0127832,0.0255663,0.0170442,33,-17.4,45,0.0287402,0.453856,10.1272
21875377,-0.0191748,0.0255663,0.0106526,32.4,-16.2,45,0.0143701,0.477806,10.096
21898258,-0.00852211,0.0149137,0.00426106,33,-15.45,43.95,0.0119751,0.494572,10.1439
21911377,-0.0245011,0.0181095,0.0106526,33.3,-16.35,45.45,-0.0359253,0.427511,10.0936
21934203,-0.00852211,0.0255663,0.00958738,33.6,-16.8,45.15,0.124541,0.564027,10.1392
21947375,-0.0340885,0.0308927,-0.00106526,32.1,-16.35,43.35,-0.0263452,0.458646,10.0553
21970209,-0.015979,0.0234358,0.00639159,31.5,-16.05,45.15,-0.00718506,0.437091,10.041
21983378,-0.0127832,0.0181095,0.00426106,32.85,-16.05,44.4,-0.0718506,0.362845,10.1056
22006203,-0.0127832,0.0170442,0.00852211,32.1,-17.1,44.1,-0.0407153,0.382006,10.041
22018430,-0.00426106,0.015979,0.00532632,33.45,-17.4,44.7,0.0143701,0.480201,10.0601
22041203,-0.0213053,0.0181095,0.00319579,30.6,-16.2,45,-0.102986,0.446671,10.0984
22053378,-0.00106526,0.0170442,-0.00106526,34.2,-16.95,44.25,0.0790356,0.456251,10.1463
22076203,-0.00958738,0.00213053,0.00426106,31.8,-18.3,45.15,-0.0766406,0.484991,10.0817
22089379,0.00852211,0.0255663,0.0138484,31.8,-15.6,43.35,-0.203577,0.36045,10.2014
22102372,-0.00532632,0.0234358,0.0191748,33,-15.45,45.3,-0.0910107,0.223934,9.97389
22125203,-0.0330232,0.015979,0.00958738,33.75,-15.9,44.7,-0.0598755,0.370031,10.1583
22137420,0,0.0213053,0.0191748,32.1,-17.55,43.35,-0.0167651,0.343685,9.92599
22160203,-0.0117179,0.0223706,0.0138484,33.75,-17.4,45.3,-0.0407153,0.518522,10.0793
22172372,-0.00639159,0.00852211,0.00532632,32.55,-15.3,44.4,-0.332908,0.413141,10.0577
22195203,-0.0106526,0.0245011,0.0170442,33.6,-16.35,44.85,-0.438289,0.370031,10.0984
22207374,0.0298274,0.0308927,0.0276969,33.45,-17.4,43.65,-0.304167,0.549657,10.1176
22230203,-0.0149137,0.0213053,0.0266316,32.7,-15.9,45,-0.107776,0.468226,9.99784
22242374,0.00106526,0.0383495,0.0308927,32.55,-15.6,45.9,0.0335303,0.422721,10.2086
22265217,0.00745685,0.0298274,0.0287621,33.3,-17.55,44.85,0.107776,0.492177,10.0625
22278378,-0.0298274,0.0255663,0.0191748,32.1,-15.6,43.8,0.222737,0.465831,10.1559
22301203,0.00639159,0.0213053,0.0170442,32.4,-17.4,43.95,0.186812,0.444276,10.1751
22314376,-0.0138484,0.02024,0.00958738,32.55,-15.3,44.1,0.100591,0.417931,10.0098
22337210,-0.00319579,0.0138484,0.00958738,30.9,-15.9,44.7,0.0838257,0.516127,10.2158
22350378,-0.00213053,0.00745685,0.00745685,33.6,-15.6,43.8,0.208367,0.513732,10.0865
22373203,-0.0234358,0.00745685,0.00319579,32.55,-16.8,43.8,0.119751,0.439486,10.1128
22386382,-0.00319579,0.00745685,0.00426106,33.75,-16.2,43.65,0.182021,0.530497,10.1463
22399377,-0.00639159,0.00106526,-0.00745685,33,-15.9,44.7,0.110171,0.374821,10.0386
22422203,-0.02024,-0.00426106,-0.0106526,33.6,-16.8,44.4,-0.0119751,0.34129,10.1128
22434376,0.00639159,0.00213053,0.00319579,33.75,-15.9,44.25,0.126936,0.444276,10.1894
22457209,-0.0170442,0.00639159,0,33,-18.45,44.25,0.270637,0.487386,9.9212
22469377,-0.0149137,0.00106526,0,33,-16.95,44.25,0.0718506,0.463436,10.3212
22492203,0.00958738,0.00426106,0.00213053,33.45,-16.2,45.6,0.0263452,0.456251,10.0913
22504384,-0.0213053,0.00745685,0.00213053,31.95,-16.65,45.6,0.0718506,0.484991,10.0505
22527203,0.00745685,0.00852211,0.00532632,32.85,-16.8,44.85,0.0143701,0.410746,10.1966
22540377,-0.0117179,0.0138484,0.00639159,33.6,-16.8,44.4,-0.0455054,0.434696,10.0338
22563217,-0.00426106,0.00319579,0.00639159,31.95,-15.9,44.25,-0.0598755,0.401166,10.1607
22576378,0,0.00532632,0.00958738,32.7,-15.9,44.25,-0.124541,0.405956,10.0697
22599203,-0.00426106,0.00745685,0.00852211,33.45,-16.2,45,-0.304167,0.358055,9.99545
22611375,0.00426106,-0.00639159,0.0106526,32.85,-14.85,44.4,-0.285007,0.3365,10.2805
22634202,0.0213053,0,0.0170442,32.1,-14.85,44.4,-0.105381,0.410746,10.005
22646377,-0.015979,0.00426106,0.0181095,32.85,-16.35,44.1,0.0718506,0.451461,10.1392
22669203,0.0298274,0.0138484,0.0117179,33.6,-16.8,43.05,0.0838257,0.494572,10.2517
22682376,-0.00958738,0.00958738,0.00852211,33,-17.7,44.25,0.134121,0.477806,10.0505
22695378,0.00532632,-0.00426106,0.00319579,32.4,-15.9,44.25,0.0838257,0.458646,10.2373
22718203,0.0127832,-0.00213053,0.00213053,32.4,-16.95,45,0.0167651,0.489782,10.0386
22730361,-0.0223706,-0.00213053,0.00319579,32.55,-16.8,44.85,-0.110171,0.408351,10.1224
22753202,0.00639159,0.00106526,0.00745685,33.6,-17.1,45.45,-0.0766406,0.489782,10.199
22765377,-0.00958738,0.0127832,0.00426106,32.85,-15.6,44.4,-0.0455054,0.508942,10.029
22788204,-0.0106526,0.0117179,0,32.85,-17.1,44.1,-0.0502954,0.434696,10.1607
22800374,0.00639159,0.00426106,0.00213053,33.75,-16.2,45.3,0,0.453856,9.9691
22823203,-0.0191748,0.00745685,-0.00213053,31.95,-16.2,45.6,-0.0215552,0.489782,10.1607
22835362,0.00852211,0.00639159,-0.00532632,33.3,-14.85,43.8,-0.0646655,0.437091,10.1559
22858392,-0.00852211,0.00745685,0.00106526,32.7,-16.95,44.25,-0.0981958,0.449066,10.0769
22871376,0.00213053,0.00213053,0.00532632,31.8,-16.05,44.4,-0.172441,0.415536,10.1439
22894204,-0.00213053,0.00532632,0.00319579,31.5,-16.05,45.45,-0.134121,0.463436,10.0434
22906353,-0.00958738,0.00639159,0.00958738,33,-16.65,46.05,-0.0646655,0.461041,10.1104
22929236,0.00745685,0.00745685,0.0138484,33,-16.2,45.3,-0.246687,0.434696,10.1224
22942376,-0.00852211,0.0170442,0.0181095,31.5,-16.05,44.4,-0.234712,0.413141,10.0577
22965203,0,0.0266316,0.02024,31.65,-15.45,45.3,-0.337698,0.405956,10.1008
22978427,0.00745685,0.0255663,0.0213053,33,-17.7,44.25,-0.189207,0.386796,10.1056
23001203,-0.02024,0.02024,0.0245011,32.55,-16.35,45.15,0.00479004,0.425116,10.0505
23013371,-0.00745685,0.0234358,0.0266316,32.7,-16.95,44.25,0.122146,0.475411,10.1942
23036203,-0.02024,0.00639159,0.015979,33,-16.95,45.3,0.0335303,0.547262,10.0625
23049377,-0.00852211,0.0138484,0.0127832,32.7,-16.65,45.6,-0.00479004,0.599952,10.2613
23062377,0.015979,-0.00319579,-0.00532632,34.65,-16.35,44.85,0.0814307,0.542472,10.041
23085203,-0.0234358,-0.00106526,0,33.45,-16.95,45,0.0502954,0.386796,10.1296
23097391,0.0255663,0.00319579,0.00639159,34.2,-16.65,44.25,0.335303,0.449066,10.2254
23120203,-0.0340885,0.00745685,0.00745685,33.3,-16.35,44.1,0.0143701,0.518522,9.97629
23132367,0.00319579,0.00958738,0.0149137,32.85,-16.35,45.15,-0.0646655,0.635878,10.3403
23155203,0.0170442,0.02024,0.0149137,32.85,-16.35,45.15,0.107776,0.499362,9.9691
23168376,-0.0276969,0.0213053,0.0170442,33.45,-15.15,45,0.249082,0.508942,10.211
23191203,0.02024,0.0149137,0.015979,33.75,-16.65,45,0.443079,0.664618,10.2086
23204370,-0.0138484,0.0181095,0.0170442,34.5,-16.2,45.6,0.62031,0.547262,9.99305
23227220,-0.00213053,0.00958738,0.00319579,33.45,-16.95,44.7,0.546064,0.496967,10.1823
23240377,0.00852211,-0.00213053,-0.00319579,33.45,-16.95,45.6,0.59636,0.655038,10.1415
23263203,-0.00958738,0,0.00532632,33.75,-16.2,44.25,0.627495,0.516127,10.1823
23275375,-0.0127832,-0.00319579,-0.00319579,32.85,-16.35,44.4,0.546064,0.413141,10.1224
23288377,-0.00745685,-0.00745685,-0.0149137,32.7,-17.4,43.2,0.438289,0.501757,10.0889
23311203,-0.00958738,-0.0223706,-0.0191748,31.5,-16.8,45.15,0.268242,0.576002,10.1727
23323372,0.00213053,-0.0181095,-0.0170442,33.9,-16.05,45.15,0.234712,0.585582,10.0505
23346217,-0.0127832,-0.0138484,-0.0181095,33,-16.2,43.65,0.229922,0.525707,10.2206
23359378,0.0138484,-0.0106526,-0.0106526,32.55,-16.05,44.85,0.335303,0.592767,10.1799
23382203,-0.0138484,-0.0117179,-0.0170442,33.45,-15.15,45,0.318538,0.499362,10.0865
23394375,0.00532632,-0.02024,-0.0181095,33.3,-16.35,44.4,0.225132,0.403561,10.1511
23417210,-0.00639159,-0.00745685,-0.015979,32.7,-16.2,45.6,0,0.417931,10.0984
23430377,-0.0106526,-0.0234358,-0.0181095,33,-16.95,45,-0.364043,0.319735,10.0984
23453203,0.00106526,-0.0127832,-0.00532632,33.75,-16.95,45.6,-0.538879,0.32213,10.1104
23465382,-0.0138484,0.00319579,0.00426106,33,-15.15,43.95,-0.687371,0.343685,9.97389
23488203,-0.00958738,0.00532632,0.00639159,33.6,-15.6,44.85,-0.682581,0.432301,10.0889
23501378,0,0.0170442,0.0138484,32.55,-15.3,45.45,-0.435894,0.463436,10.0721
23524220,-0.0181095,0.0223706,0.0127832,31.95,-15.9,45,-0.361648,0.499362,10.0913
23537376,0.00319579,0.0170442,0.0127832,32.4,-15.9,44.25,-0.205972,0.508942,10.1152
23550371,-0.00639159,0.0138484,0.0127832,33.3,-16.05,45.15,-0.119751,0.439486,10.0553
23573203,-0.0149137,0.00745685,0.0117179,33,-17.4,45.3,-0.114961,0.429906,10.1344
23585379,-0.00426106,0.0138484,0.0138484,33.6,-16.05,44.4,-0.0790356,0.484991,10.0984
23608203,-0.0138484,0.0106526,0.0138484,32.4,-16.65,44.25,0.0335303,0.432301,10.1104
23620372,-0.00532632,0.0191748,0.0117179,34.65,-16.8,45.45,-0.00479004,0.482596,10.132
23643220,-0.00958738,0.02024,0.0127832,32.1,-16.05,45.45,-0.0119751,0.449066,10.108
23656377,-0.0117179,0.0234358,0.00639159,33,-17.7,44.7,0.0502954,0.451461,10.1272
23679203,-0.00213053,0.0149137,0.00532632,31.95,-13.65,43.95,0.0886157,0.463436,10.1104
23692375,-0.015979,0.0181095,0.00745685,32.55,-14.85,45.15,0.205972,0.520917,10.1511
23715209,0.00213053,0.0127832,0.00213053,33.3,-16.05,45.45,0.316143,0.547262,10.1655
23728378,-0.00319579,-0.00319579,-0.0117179,33,-16.65,45.3,0.213157,0.437091,10.0481
23751203,-0.0223706,-0.00319579,-0.0106526,32.55,-16.05,45.15,-0.0455054,0.429906,10.0984
23764382,0.0138484,-0.00745685,-0.0138484,31.5,-17.1,45.15,0.0886157,0.580792,10.1703
23777372,-0.0170442,-0.00958738,-0.0191748,33.9,-17.1,44.4,0.0646655,0.523312,10.029
23800203,-0.00958738,-0.00532632,-0.0149137,32.7,-15.9,44.7,-0.0311353,0.408351,10.2613
23812371,0.00319579,0.00852211,0.00532632,32.55,-16.35,44.1,0.129331,0.417931,10.017
23835209,-0.0213053,0.0127832,0.00426106,32.4,-14.7,43.65,0.136516,0.463436,10.1104
23848372,-0.00319579,0.00745685,0.00639159,33,-16.65,43.95,0.100591,0.473016,10.1415
23871203,-0.00958738,0.0127832,0.00532632,32.4,-15.9,45.3,0.0958008,0.523312,10.1032
23884379,-0.0149137,0.02024,0.0223706,32.7,-18,45.3,-0.0431104,0.477806,10.2038
23907203,0.00106526,0.0223706,0.0245011,32.4,-17.7,44.7,0.378413,0.528102,10.1535
23919372,-0.02024,0.0127832,0.00958738,32.85,-14.85,44.4,0.546064,0.602347,10.1415
23942220,-0.0181095,0.0138484,0.00745685,33,-16.65,44.7,0.270637,0.535287,10.223
23955377,-0.0308927,0.0170442,0.0117179,33,-16.2,44.25,0.0455054,0.34129,10.0122
23978203,0,0.0149137,0.0170442,32.7,-17.7,45,-0.0958008,0.511337,10.2469
23990375,0.00319579,0.015979,0.0181095,33,-16.2,44.25,-0.0838257,0.530497,10.029
24013209,-0.0234358,0.0255663,0.0191748,33,-16.2,43.95,0.0119751,0.494572,10.0721
24026378,-0.00213053,0.0245011,0.0213053,32.7,-16.2,44.7,0.0814307,0.549657,10.1463
24039377,0.0117179,0.0170442,0.0149137,31.95,-15.9,45.6,-0.0263452,0.549657,10.0936
24062220,-0.0106526,0.0170442,0.0181095,32.85,-16.35,44.4,0.117356,0.492177,10.1487
24075376,-0.00745685,0.0117179,0.00852211,33.9,-16.8,45.15,0.0287402,0.542472,10.096
24098203,-0.0181095,0.00213053,0.00426106,33.9,-17.1,45.15,-0.112566,0.413141,10.1942
24110375,0.00532632,0.0117179,0.015979,33.3,-17.85,45.15,-0.249082,0.501757,10.1751
24133209,0.00426106,0.00745685,0.015979,33.3,-17.1,45.15,-0.213157,0.461041,10.12
24146378,-0.00532632,0.00532632,0.0127832,33.6,-14.85,44.1,-0.462239,0.482596,10.1344
24169203,0.00852211,0.00745685,0.00639159,32.1,-17.1,45.45,-0.684976,0.456251,10.1583
24181382,-0.0181095,0.00213053,0.00213053,33.3,-16.35,45.9,-0.752036,0.343685,10.0721
24204203,0.00745685,-0.00213053,0.0106526,32.4,-16.95,45.3,-0.730481,0.382006,10.1631
24216378,0.0191748,0.00213053,-0.00319579,31.8,-17.1,45.9,-0.548459,0.420326,10.0889
24239257,-0.00532632,-0.00106526,-0.00639159,32.85,-17.1,45.9,-0.534089,0.34608,10.1128
24252376,0.00958738,-0.00639159,-0.00106526,32.7,-18.45,43.95,-0.459844,0.252675,10.0242
24275203,-0.00426106,-0.00213053,0.00426106,32.4,-15.45,44.7,-0.546064,0.329315,10.0218
24287376,-0.00639159,0.0181095,0.00958738,33.6,-16.8,45.15,-0.526904,0.427511,10.12
24300714,-0.0117179,0.0330232,0.0255663,32.4,-16.2,44.7,-0.335303,0.544867,10.0889
24323203,-0.00532632,0.02024,0.0234358,31.95,-16.95,45.3,0.0766406,0.484991,10.1272
24335378,-0.00852211,0.0127832,0.0117179,32.1,-17.1,45.15,0.335303,0.504152,10.132
24358236,-0.02024,0.0117179,0.00426106,33.45,-15.9,45,0.347278,0.511337,10.1056
24371377,-0.00852211,0.0138484,0.00745685,33.9,-16.8,44.1,0.155676,0.528102,10.1104
24394203,-0.00532632,0.0170442,0.00532632,33.3,-15.6,45.15,0.0311353,0.520917,10.0697
24406377,-0.00426106,0.0170442,0.00106526,32.7,-16.95,44.7,-0.0910107,0.468226,10.132
24429217,-0.00639159,0.0127832,0.00958738,31.5,-16.8,44.4,-0.0167651,0.415536,10.1176
24442378,-0.0149137,0.02024,0.0170442,31.65,-16.95,44.7,0.0646655,0.417931,10.0625
24465203,0.00213053,0.02024,0.0149137,31.65,-16.95,45,0.0167651,0.523312,10.1439
24478414,-0.0170442,0.02024,0.00852211,32.4,-15.45,44.7,-0.155676,0.458646,10.0793
24501203,0.00213053,0.0223706,0.00958738,34.8,-16.65,45.3,-0.0910107,0.583187,10.1918
24514372,0.00639159,0.015979,0.0138484,32.1,-16.05,43.8,0.182021,0.475411,10.0002
24527376,-0.0149137,-0.00319579,0.00532632,34.65,-17.1,44.4,0.342488,0.535287,10.235
24550223,0.0170442,-0.00852211,-0.00319579,33,-16.95,44.25,0.457449,0.568817,10.0913
24563381,-0.00532632,-0.0191748,-0.0127832,32.4,-16.65,45.3,0.373623,0.571212,10.0625
24586203,0.00213053,-0.0213053,-0.0181095,32.85,-16.05,45.15,0.316143,0.535287,10.2086
24598413,0.00852211,-0.0276969,-0.0191748,32.7,-16.2,43.95,0.0479004,0.434696,9.96192
24621203,-0.0223706,-0.00958738,-0.0149137,32.4,-17.4,45.6,-0.383203,0.389191,10.1487
24634374,0.0191748,-0.0149137,0,31.8,-16.05,44.1,-0.524509,0.405956,10.12
24657208,-0.00319579,0.00106526,0.0106526,32.7,-16.95,45.3,-0.380808,0.415536,9.96192
24670379,0.00639159,0.00852211,0.0127832,34.2,-16.2,45,-0.241897,0.458646,10.1559
24693203,-0.0117179,0.0191748,0.0223706,31.5,-15.6,43.35,-0.179626,0.475411,10.108
24705378,-0.0127832,0.0308927,0.0181095,32.1,-16.8,44.4,-0.0981958,0.427511,10.0769
24728217,-0.00213053,0.00745685,0.0106526,33.3,-16.8,43.35,-0.184417,0.425116,9.98587
24741378,-0.0138484,0.0191748,0.0127832,32.7,-16.65,46.35,-0.193997,0.518522,10.1272
24754372,0.0117179,0.00745685,0.00852211,32.85,-16.05,43.8,-0.100591,0.549657,10.1272
24777208,-0.00745685,0.015979,0.00532632,32.85,-15.6,44.1,-0.0143701,0.427511,10.0074
24790382,-0.00639159,0.0127832,0.00426106,32.4,-15.15,45,-0.0718506,0.437091,10.1415
24813203,0.00106526,0.0181095,0.00426106,32.4,-16.95,44.7,-0.0502954,0.405956,10.0769
24825377,-0.0245011,0.0170442,0.015979,32.55,-16.8,45.9,-0.0694556,0.405956,10.0434
24848217,0.00319579,0.02024,0.0266316,33.45,-16.2,44.7,-0.117356,0.564027,10.1847
24861379,-0.0213053,0.00639159,0.0191748,32.7,-16.2,44.7,-0.129331,0.568817,10.0601
24884203,-0.0117179,0.00532632,0.0149137,32.55,-16.05,45.15,-0.313748,0.374821,10.1703
24896382,-0.00426106,0.0117179,0.02024,33.3,-15.6,44.4,-0.342488,0.374821,10.0601
24919210,-0.0170442,0.0181095,0.0127832,33.6,-15.6,43.8,-0.193997,0.475411,10.132
24932377,-0.00319579,0.0319579,0.0170442,32.7,-15.45,45,-0.148491,0.516127,10.1415
24955203,-0.00745685,0.0308927,0.0170442,32.55,-15.6,44.4,-0.210762,0.484991,10.0218
24967380,-0.00532632,0.0383495,0.02024,32.4,-15.45,45.3,-0.155676,0.484991,10.1751
24990203,0.00426106,0.0330232,0.0191748,32.7,-16.2,45,0.225132,0.556842,10.1152
25002375,-0.00532632,0.0372843,0.0138484,32.55,-16.05,44.85,0.282612,0.520917,10.1392
25025217,-0.0149137,0.0415453,0.0213053,32.4,-16.95,45.3,0.0766406,0.544867,10.1703
25038379,-0.0191748,0.0308927,0.0106526,33.3,-16.05,45.15,0.0622705,0.420326,10.1368
25051377,-0.0426106,0.0308927,0.0117179,32.55,-15.6,44.85,-0.107776,0.353265,10.0625
25074203,-0.0117179,0.00639159,-0.00319579,33.3,-15.6,45.9,-0.474214,0.465831,10.0601
25086382,-0.0181095,0.0127832,0,32.55,-15.6,44.1,-0.711321,0.461041,9.99784
25109203,0.0106526,0.0234358,0.0149137,33.75,-17.4,45.3,-0.541274,0.489782,10.223
25122377,0.0117179,0.0213053,0.00745685,33.45,-15.45,44.7,0.0479004,0.513732,10.0362
25145217,-0.0383495,0.02024,0,32.85,-17.55,45.15,-0.141306,0.391586,10.1176
25158379,-0.00958738,0.0287621,0.00852211,32.85,-15.3,44.4,-0.344883,0.25028,10.2086
25181203,-0.00213053,0.0170442,0.00745685,33.45,-16.2,44.25,-0.0838257,0.405956,9.90683
25193377,-0.00958738,0.0170442,0.00213053,32.55,-17.55,43.35,0.0766406,0.475411,10.1344
25216209,0.00745685,0.00106526,-0.00213053,31.8,-16.8,44.85,0.0383203,0.504152,10.1631
25229382,-0.0117179,0.00745685,-0.00319579,33.75,-16.65,45,0.0550855,0.398771,10.0817
25252203,-0.00745685,0.0138484,-0.00745685,33.45,-16.65,44.7,-0.0119751,0.449066,10.132
25264382,-0.00426106,0.0138484,-0.00319579,33.3,-15.3,44.1,-0.0287402,0.477806,10.0673
25287203,-0.0138484,0.00852211,0.00213053,32.85,-17.55,44.4,0.0239502,0.501757,10.0936
25300378,-0.00745685,0.0149137,0.00532632,32.55,-16.05,45.9,-0.172441,0.465831,10.0721
25313377,0.00106526,0.0138484,0.0138484,33.3,-14.85,45.15,-0.0981958,0.427511,10.1631
25336209,-0.00852211,0.0117179,0.0106526,31.8,-15.6,45.15,0.0119751,0.523312,10.0601
25349379,-0.0213053,0.00639159,0.00106526,34.35,-17.85,45.9,-0.0359253,0.516127,10.1942
25372203,0.0106526,0.0149137,-0.00106526,33.3,-16.35,45.15,-0.0167651,0.417931,10.0936
25384384,-0.0266316,0.00745685,-0.00106526,32.4,-17.4,45.6,-0.0646655,0.425116,10.1128
25407203,-0.00745685,0.00852211,-0.0149137,33.75,-16.2,45.3,-0.162861,0.449066,10.1655
25419377,-0.0298274,-0.00319579,-0.00532632,32.85,-16.05,44.85,-0.138911,0.377216,10.005
25442217,-0.02024,0.00639159,0.00426106,33,-16.2,44.25,-0.0574805,0.427511,10.1918
25455379,-0.0117179,-0.00745685,0.00106526,32.4,-15.9,43.65,-0.0215552,0.542472,9.98587
25478203,-0.0340885,-0.00213053,0.00532632,34.35,-15.3,45.45,-0.00718506,0.434696,10.1631
25490377,-0.00319579,-0.00319579,0,33.6,-16.35,44.85,-0.00958008,0.36045,10.0841
25513209,-0.0276969,-0.00213053,-0.00106526,31.8,-16.05,43.8,-0.0742456,0.420326,10.0865
25526382,-0.00532632,0.00213053,0.00958738,33.3,-17.55,44.85,-0.0359253,0.458646,10.2086
25539377,-0.0191748,0.00106526,-0.00426106,33.45,-16.2,44.25,-0.0886157,0.480201,10.029
25562217,0.00213053,-0.00213053,-0.00106526,32.85,-16.05,45.15,-0.100591,0.35566,10.2493
25575378,-0.0127832,-0.0127832,-0.00639159,33.6,-15.6,44.4,0.119751,0.540077,10.0649
25598203,-0.00852211,-0.00852211,-0.0127832,33.9,-16.05,45.15,-0.0119751,0.540077,10.0601
25610377,0.00106526,-0.00745685,-0.0149137,31.95,-16.65,45,-0.00239502,0.343685,10.1487
25633203,-0.02024,0.00426106,-0.0170442,33.6,-17.1,43.8,0.0431104,0.477806,10.0625
25645378,-0.00426106,0.00639159,-0.015979,32.4,-16.95,43.95,-0.129331,0.477806,10.1823
25668203,-0.00319579,0.0149137,-0.02024,30.75,-16.8,44.85,0.0598755,0.508942,9.99784
25680408,-0.02024,0.0138484,-0.02024,31.8,-16.05,43.35,0.0167651,0.482596,10.1439
25703204,-0.00958738,0.00426106,-0.00639159,33.45,-16.95,44.7,-0.0670606,0.398771,10.0745
25715372,-0.0287621,0.00319579,0.00426106,33.3,-16.8,44.85,-0.138911,0.202379,9.98108
25738236,0.0191748,-0.0213053,0.00532632,31.35,-17.4,43.65,-0.0934058,0.36524,10.1655
25751378,-0.0117179,-0.0106526,0,33.75,-16.65,45.3,-0.0502954,0.36524,9.95713
25774203,-0.0170442,-0.02024,-0.00213053,32.7,-17.7,43.2,-0.138911,0.358055,10.1823
25786377,-0.00639159,-0.0117179,-0.00852211,32.4,-15.15,45.3,-0.0742456,0.413141,10.0793
25809223,-0.0511327,0.0117179,-0.00319579,31.95,-15.9,44.7,0,0.463436,10.0841
25822382,-0.0287621,0.00319579,-0.00958738,33.6,-18.3,45.45,0.0407153,0.386796,10.1176
25845203,-0.036219,0.0255663,-0.00532632,32.85,-17.55,44.85,0.0718506,0.413141,10.1823
25857406,-0.0415453,0.0351537,0.00106526,32.1,-17.1,44.1,0.287402,0.552052,10.0577
25880204,-0.0372843,0.0117179,-0.02024,31.5,-16.05,45.9,0.189207,0.463436,10.1607
25892376,-0.00213053,0.0500674,-0.0191748,32.4,-16.95,45.3,0.0191602,0.516127,10.096
25915206,-0.00213053,0.00426106,-0.02024,33,-18.75,44.25,-0.0622705,0.25028,10.0936
25927380,0.0490022,0.0330232,-0.00745685,31.65,-16.65,45.3,-0.00718506,0.310155,10.1511
25950203,-0.0319579,0.0415453,-0.0181095,33,-16.2,44.7,-0.0335303,0.461041,10.0314
25962376,-0.0138484,0.0181095,-0.0170442,32.7,-15.45,43.95,-0.0191602,0.252675,10.2517
25985217,-0.0319579,0.0745685,-0.0287621,31.95,-15.9,43.95,0.00958008,0.542472,10.2158
25998378,-0.00426106,0.0447411,-0.00958738,32.4,-17.7,45,0.225132,0.655038,10.1248
26011377,0.0276969,0.00106526,-0.0585895,32.55,-17.55,45.15,0.0910107,0.571212,10.2134
26034203,0.0415453,0.0308927,-0.052198,33.45,-16.95,43.95,-0.361648,0.34608,10.096
26046384,0.0287621,0.0745685,-0.0351537,31.5,-17.85,43.05,-0.277822,-0.171244,10.041
26069203,-0.00639159,0.0990696,-0.0458064,33.45,-15.9,45.3,-0.328118,0.221539,9.91162
26081377,-0.0479369,0.123571,-0.00745685,32.7,-16.65,45.3,-0.416733,0.386796,10.0194
26104217,0.092678,0.0628506,-0.0820254,32.55,-16.05,44.85,-0.0287402,1.14841,9.62183
26117379,-0.0234358,0.0649811,-0.0735032,33,-17.4,45.3,-0.565225,0.949625,10.6301
26140203,0.135289,0.0511327,-0.0713727,32.7,-15.45,44.7,-0.565225,0.832269,10.1056
26152377,0.0170442,0.0575243,-0.0255663,33.9,-16.35,44.4,-0.208367,0.27423,10.0481
26175209,0.0372843,0.0479369,-0.0458064,31.8,-15.3,44.1,0.131726,0.247885,10.3978
26188382,-0.02024,0.0820254,-0.00958738,33.45,-16.65,44.7,-0.174836,0.398771,10.0146
26211203,-0.00106526,0.0639159,-0.00213053,32.85,-16.05,43.35,0.0215552,0.480201,10.2829
26223382,-0.0351537,0.1012,0.00639159,33.3,-17.1,43.8,-0.229922,0.561632,10.1128
26246203,-0.0223706,0.0820254,0.0149137,32.85,-15.6,44.85,0.110171,0.731678,10.3547
26259378,0.00106526,0.0777643,0.00745685,33.6,-16.35,44.4,-0.0694556,0.506547,10.0505
26272377,-0.00213053,0.0543285,0.00426106,33.75,-17.7,43.65,-0.126936,0.403561,10.2493
26295209,0.0287621,0.0447411,-0.00213053,33.3,-15.3,43.35,0.0790356,0.525707,10.12
26308379,-0.052198,0.0447411,0.015979,32.4,-16.95,44.25,-0.0646655,0.389191,9.97868
26331203,-0.00106526,0.0276969,0.00106526,33,-15.15,45,-0.0191602,0.25028,10.235
26343384,-0.00106526,0.0383495,0.00639159,33.45,-16.65,44.25,-0.227527,0.446671,10.0074
26366203,0.00426106,0.0500674,0.00213053,33.75,-16.65,43.95,-0.220342,0.559237,10.0984
26379377,0.00639159,0.0436758,0.00319579,33.9,-16.35,44.4,0.00479004,0.468226,10.0601
26402217,0.0138484,0.052198,-0.00532632,33.6,-17.55,44.4,-0.119751,0.607138,10.4912
26415379,0.015979,0.0490022,0.00106526,33.75,-16.95,44.7,-0.431104,0.32213,9.82301
26438203,-0.0181095,0.0543285,0.0234358,33,-16.95,42.6,-0.593965,0.391586,10.2541
26450377,0.0234358,0.0340885,0.00852211,33.45,-16.65,42.9,-0.440684,0.712518,10.0505
26473209,-0.0287621,0.0820254,0.0223706,33,-17.4,44.25,-0.337698,0.585582,10.1415
26485382,0.00639159,0.0458064,-0.00639159,33.45,-15.9,43.65,-0.61073,0.396376,10.0553
26508203,0.015979,0.0681769,0.00745685,33.9,-15.6,45.15,-0.354463,0.798739,10.0362
26520408,0.0319579,0.0298274,-0.00852211,33.45,-15.9,45.3,-0.862207,0.554447,10.0074
26543203,0.0170442,0.0830906,0.00319579,33.3,-16.8,45.15,-0.186812,0.226329,9.91641
26556378,0.00639159,0.0543285,0.00106526,34.35,-16.8,44.85,-0.59157,0.30297,10.2206
26569377,0.0117179,-0.0149137,0.0276969,32.7,-18,43.95,-0.397573,0.202379,9.99784
26592209,-0.0458064,0.00745685,0.0276969,33.45,-16.65,44.25,-0.153281,0.178429,10.2206
26604379,-0.0287621,-0.0319579,0.0266316,33.9,-16.8,44.1,-0.282612,0.257465,9.96671
26627203,-0.0330232,0,-0.00106526,33.3,-15.3,43.8,-0.692161,0.142504,10.0625
26640413,-0.0127832,0.0106526,-0.00319579,33.75,-18,44.7,-1.02746,0.228724,10.0793
26663203,-0.0287621,0.00958738,0.00852211,33.3,-16.05,44.1,-0.687371,0.0898132,9.9715
26675377,-0.0426106,0.0191748,0.00745685,33,-17.4,43.2,-0.749641,0.484991,10.2661
26698238,-0.0138484,0.0106526,0.00852211,33.9,-16.05,43.8,-0.421523,0.36524,9.85175
26711379,0.0319579,0.036219,0.00426106,32.85,-16.8,44.4,-0.311353,0.319735,9.97389
26734203,-0.0298274,-0.00639159,-0.015979,33,-17.4,43.65,-0.61073,0.0993933,10.0338
26746377,-0.0287621,-0.00852211,0.0117179,32.7,-16.95,44.25,-0.423918,0.571212,10.2565
26769217,0.0170442,-0.0234358,0.0255663,33.3,-16.8,44.1,-0.256267,0.338895,10.1224
26782382,-0.0170442,-0.04048,0.0191748,33,-17.4,44.7,-0.110171,0.554447,10.0721
26805203,0.015979,-0.0298274,0.0181095,33,-15.9,43.95,-0.165256,0.549657,10.2517
26817411,0.0127832,-0.0340885,0.015979,32.7,-15.45,45,-0.220342,0.499362,10.1104
26840204,0.00852211,-0.0383495,0.0149137,33.3,-16.35,43.8,-0.237107,0.585582,10.235
26852376,0.00639159,-0.0447411,0.0138484,32.4,-15.9,42.6,-0.337698,0.458646,10.096
26875204,0.00532632,-0.0394148,0.0127832,33.6,-16.35,44.1,-0.308958,0.370031,9.98108
26887380,0.0223706,-0.0372843,0.0117179,32.55,-16.8,44.4,-0.268242,0.398771,9.99305
26900677,-0.00319579,-0.0308927,0.0191748,33,-15.15,44.7,-0.320933,0.453856,10.1176
26923203,0.0213053,-0.0340885,0.02024,33.6,-15.6,43.35,-0.138911,0.528102,10.005
26935378,0.00319579,-0.0266316,0.0138484,31.65,-15.45,45,-0.232317,0.523312,10.1152
26958209,0.0351537,-0.0170442,0.0181095,33.45,-16.65,44.7,-0.0694556,0.585582,10.0577
26970379,0.0213053,-0.00106526,0.0181095,33.45,-16.2,43.65,0.0598755,0.525707,10.005
26993203,0.0255663,0.0127832,0.0149137,33.75,-15.9,44.25,-0.0502954,0.401166,10.0386
27006384,0.072438,0.0127832,0.015979,35.25,-16.2,45,-0.0191602,0.446671,10.0625
27029203,0.0319579,0.02024,0.00852211,32.55,-16.05,44.1,0.0934058,0.655038,10.0889
27042377,0.0639159,0.0106526,0.00958738,33.9,-16.8,45.45,-0.172441,0.456251,10.1392
27065217,0.0713727,0.00319579,0.0234358,33.3,-16.8,44.85,0.00479004,0.506547,10.0697
27078379,0.0553937,0.00319579,0.0255663,34.65,-17.1,45.15,-0.134121,0.583187,10.2326
27101203,0.113983,0.00106526,0.0319579,32.85,-15.6,45.15,0.0335303,0.585582,10.1847
27113377,0.0852212,0.0127832,0.0330232,34.5,-17.4,43.65,-0.134121,0.492177,9.95473
27136209,0.122505,0.0127832,0.0330232,33,-15.45,44.7,-0.208367,0.396376,10.2541
27149382,0.127832,0.0234358,0.0458064,32.7,-16.2,45,-0.153281,0.463436,10.017
27162377,0.138484,0.0330232,0.052198,33.45,-16.2,44.7,-0.232317,0.561632,10.2014
27185217,0.201335,0.0436758,0.0745685,33.3,-14.85,44.85,-0.538879,0.595162,9.95713
27198378,0.192813,0.0617853,0.102265,34.8,-13.95,44.25,-0.306563,0.446671,10.0553
27221203,0.272708,0.0649811,0.0980043,33.45,-15.9,46.35,-0.105381,0.542472,9.99066
27233377,0.325971,0.0809601,0.0905475,33.6,-14.25,45.15,0.0981958,0.686173,9.8757
27256209,0.420779,0.0958738,0.0447411,32.85,-13.8,44.4,0.263452,0.781974,9.87809
27269382,0.48363,0.150202,0.0308927,34.35,-14.25,45.9,-0.0431104,0.724493,9.99305
27292203,0.575243,0.138484,0.0383495,34.35,-14.55,45.9,-0.270637,0.978366,10.0769
27304382,0.612527,0.137419,0.0543285,33.9,-14.25,44.85,-0.249082,0.968785,10.017
27327203,0.678573,0.14168,0.0798948,34.8,-13.65,45.6,-0.56762,0.89454,10.0242
27340378,0.721184,0.138484,0.0830906,34.95,-12.75,45.9,-0.359253,0.992736,9.94515
27363217,0.755272,0.137419,0.0788296,35.4,-12.3,46.2,-0.423918,1.67532,10.029
27376378,0.873517,0.144876,0.0585895,35.4,-11.25,45.9,-0.373623,1.67532,9.94755
27389377,0.885235,0.167247,0.036219,36.15,-10.8,47.55,-0.0814307,1.33522,9.71523
27412203,1.01094,0.131028,0.0884169,36.3,-10.65,48.15,-0.225132,1.60107,9.93797
27424384,1.08657,0.145941,0.168312,34.95,-10.05,46.5,-0.538879,1.75675,9.88528
27447203,1.17179,0.152333,0.251402,36.75,-7.95,46.2,-0.60594,2.33395,10.6493
27459377,1.12172,0.174703,0.290817,37.8,-6.75,47.25,-0.555645,2.53992,10.005
27482217,1.12598,0.269512,0.372843,37.05,-6.6,47.4,-0.752036,2.84648,10.3164
27495379,1.13344,0.224771,0.415453,37.35,-6.6,47.7,-1.23104,3.16262,10.2493
27518203,1.13983,0.120375,0.450607,37.2,-4.2,48.3,-1.10889,3.16981,10.5631
27530377,1.09403,0.02024,0.454868,37.5,-3.45,48,-0.989143,3.3183,9.86612
27553209,1.10574,0.015979,0.488956,37.2,-3,47.25,-0.749641,3.30393,9.89965
27566382,1.19416,0.0788296,0.533697,37.05,-1.35,49.2,-0.756826,3.23208,10.1128
27589203,0.993892,0.230097,0.532632,38.55,-0.9,48.6,-0.0479004,3.08838,10.12
27602382,1.15049,0.0862864,0.469782,38.55,0.15,48,-0.241897,3.13867,10.2829
27625203,0.723314,0.189617,0.420779,39.15,0.6,49.5,-0.795147,2.90157,9.66254
27638378,0.840494,0.306796,0.360059,39.3,3,50.1,-0.787961,1.98906,10.8601
27651377,0.580569,0.273773,0.234358,38.7,2.85,49.5,-1.14721,1.08854,10.7379
27674209,0.113983,0.296144,0.106526,40.95,3.6,51.9,-2.07169,0.161664,10.8529
27687379,0.26099,0.299339,0.0585895,40.35,4.5,52.5,-0.531694,0.281415,11.4899
27710203,-0.390952,0.314253,0.123571,41.55,2.55,51.9,0.215552,-0.393981,9.54519
27722384,-0.304666,0.183225,0.248207,42.45,4.2,52.2,0.440684,-0.496967,11.284
27745203,-0.545415,0.118244,0.327036,44.25,4.2,53.25,0.0598755,-0.592767,9.43022
27758377,-0.838363,0.124636,0.290817,46.35,6,54.3,-1.0083,-0.561632,10.7499
27781217,-0.828776,0.12144,0.0948085,46.95,6.9,54.45,-1.66214,-0.252675,10.1056
27794379,-1.15688,0.0990696,-0.145941,48.15,6,57,-1.24541,-0.0299377,10.484
27817203,-1.20481,0.0756338,-0.290817,49.5,5.1,58.65,-0.61073,0.211959,10.7619
27829377,-1.34117,0.0372843,-0.354733,50.7,4.2,59.85,-0.282612,0.513732,9.76074
27852209,-1.37526,0.00745685,-0.370712,53.85,3,61.2,-0.447869,0.698148,10.4481
27865382,-1.39656,0.0223706,-0.406931,54.45,0.6,62.4,-0.869392,1.10051,10.8696
27878675,-1.46474,-0.0383495,-0.468716,55.8,-2.1,63.15,-1.47533,1.73759,11.9666
27901217,-1.68844,-0.0490022,-0.558199,55.35,-5.7,63.3,-1.46096,2.17827,11.2528
27914379,-1.5915,-0.0394148,-0.575243,54.6,-7.2,62.55,-1.19751,2.3555,10.0913
27937203,-1.46687,-0.0351537,-0.566721,53.85,-10.5,60.45,-1.27655,2.72912,9.8733
27949377,-1.34436,-0.0575243,-0.547546,52.5,-16.05,58.05,-1.42743,3.48116,12.6659
27972209,-1.60216,-0.0106526,-0.477238,51.9,-16.2,57.9,-0.996328,3.43566,11.3295
27984382,-1.70549,0.0255663,-0.403735,51.3,-18,54.45,-1.05141,3.2201,11.169
28007203,-1.38378,0.0181095,-0.336624,49.2,-19.35,52.2,-1.09931,3.20573,10.0026
28019418,-1.49883,0.0213053,-0.290817,45.75,-19.8,48.3,-1.16637,2.85846,9.6362
28042203,-1.1867,0.0458064,-0.28123,45.3,-19.35,47.25,-1.50168,2.65248,9.65775
28054378,-1.13025,0.125701,-0.294013,45.15,-18,45.3,-1.71004,2.16151,7.2316
28077206,-0.418649,0.14168,-0.347276,44.1,-16.95,44.25,-1.73639,2.33634,9.85414
28089377,-0.475108,0.0809601,-0.372843,42.75,-16.2,42.6,-1.53281,3.05964,13.3772
28112203,-1.41574,0.135289,-0.322775,42.75,-16.95,42.6,-0.613125,2.1639,11.0253
28124378,-0.849016,0.123571,-0.187487,42,-17.4,40.8,-0.675396,1.07896,8.61831
28147217,-0.798948,0.136354,-0.14168,40.5,-16.65,40.05,-0.989143,1.26098,8.9153
28160378,-0.82558,0.108657,-0.151268,40.05,-15.6,39.15,-1.27176,1.03585,10.6708
28183203,-0.730771,0.104396,-0.136354,40.05,-15.6,38.55,-1.02746,0.614323,8.08662
28195380,-0.604005,0.0308927,-0.12144,39.9,-15.45,37.65,-0.969983,0.439486,8.08662
28218209,-0.181095,-0.0351537,-0.0479369,42,-13.95,36.9,-0.459844,1.0119,11.1498
28231379,-0.789361,0.111853,0.0553937,39.3,-13.5,36.75,-0.344883,1.35438,10.4026
28254203,-0.628506,0.237554,0.133158,40.5,-11.1,36.6,-0.488584,1.2969,8.69735
28266384,-0.133158,0.219444,0.22051,37.8,-11.25,36.45,-0.467029,2.12079,8.60634
28279379,-0.105461,0.252468,0.345146,38.55,-11.25,36,0,3.52427,13.4012
28302203,-0.943824,0.313188,0.442085,39,-9.75,35.4,-0.838257,2.91354,10.0002
28314377,-0.290817,0.173638,0.435693,41.1,-10.5,36.75,-1.36277,2.33155,7.06634
28337210,-0.189617,0.12144,0.36432,40.35,-8.7,37.8,-1.71962,2.96863,8.75722
28350379,-0.169377,0.124636,0.223706,40.2,-8.85,35.85,-2.69919,3.00934,9.38472
28373203,-0.0447411,0.123571,-0.0138484,40.2,-6.9,35.55,-3.27878,3.00455,7.52379
28385382,0.18216,0.134223,-0.270577,40.5,-7.35,35.85,-2.82612,3.0285,8.1441
28408203,0.813862,0.0617853,-0.472977,40.05,-7.95,34.95,-3.05365,2.30281,6.41729
28421378,0.858603,0.00319579,-0.535828,41.4,-9.3,34.65,-0.584385,-1.43342,12.5557
28444217,0.289752,-0.196009,-0.484695,39.45,-8.4,34.2,0.0455054,-5.08822,9.84935
28457378,0.54435,-0.314253,-0.0862864,41.4,-8.25,35.7,2.28485,-3.09556,10.4385
28480203,0.829841,-0.413323,0.173638,39.15,-7.35,34.5,1.46336,-0.540077,7.92136
28493378,0.82771,-0.418649,0.193878,39.45,-7.35,35.25,-1.346,-0.358055,11.0109
28506377,0.992826,-0.46339,0.0660464,40.65,-6,35.7,-2.84768,-0.700543,9.7775
28529203,1.16966,-0.551807,-0.0479369,41.4,-6.45,35.4,-1.73399,0.559237,11.751
28541377,0.682835,-0.560329,-0.0255663,40.5,-5.85,34.2,-0.967588,0.765209,12.4144
28564217,0.736098,-0.500674,-0.0298274,39.9,-4.8,35.25,-0.56762,1.16518,11.3486
28577379,0.401605,-0.411192,-0.0234358,40.5,-4.05,35.25,-0.167651,0.508942,12.0025
28600203,0.300405,-0.349407,0.00852211,39.3,-5.25,35.4,-0.486189,0.506547,10.3739
28612377,0.309992,-0.338754,0.00426106,39.15,-4.35,37.35,-0.617915,0.164059,10.0889
28635209,0.386691,-0.296144,0.0127832,38.55,-5.25,34.65,-0.337698,0.0467029,10.1104
28648382,0.328101,-0.252468,0.00852211,40.05,-5.25,36.75,0.184417,0.159269,10.9367
28671203,0.153398,-0.149137,0.0149137,39.45,-4.8,36.3,-0.0287402,0.528102,10.6325
28683382,0.155529,-0.113983,-0.0223706,40.05,-4.5,35.4,0.258662,0.851429,11.1235
28706203,0.0692422,-0.0394148,0.0117179,39.15,-4.05,36.6,-0.198787,0.554447,10.5271
28718378,0.0298274,-0.0415453,-0.00426106,39.45,-3.6,36.3,-0.275427,0.216749,10.2182
28741217,0.0639159,-0.0372843,0.0106526,39,-3.75,37.05,-0.251477,0.26944,10.0793
28754378,0.0798948,-0.015979,0.00958738,39.6,-3.45,35.7,-0.392783,0.427511,10.1176
28777203,0.0585895,-0.00745685,0.0117179,38.4,-4.05,35.85,-0.0383203,0.647853,10.4337
28789378,0.0266316,0,0.00745685,40.05,-4.5,35.7,-0.273032,0.405956,10.041
28802382,0.0340885,0.00852211,0.00745685,39.45,-5.55,35.85,-0.277822,0.461041,10.2829
28825203,0.00532632,0.00532632,0.00213053,39.3,-3.45,36,-0.359253,0.429906,10.0505
28837377,0.0213053,0.0106526,0.00213053,39.9,-5.1,35.85,-0.330513,0.207169,9.91162
28860241,0.056459,-0.00852211,0.00319579,37.8,-5.25,36,-0.447869,0.382006,10.1439
28873379,-0.00958738,-0.00106526,0.00532632,39.9,-5.1,36.3,-0.174836,0.461041,10.235
28896203,0.00745685,-0.00426106,-0.0106526,37.8,-4.2,36.45,-0.385598,0.774789,10.1415
28908377,-0.0308927,-0.0106526,-0.0138484,38.55,-3.75,37.5,-0.431104,0.532892,10.1583
28931209,0.00106526,0.00319579,-0.0117179,39.15,-4.35,35.85,-0.548459,0.0898132,10.1008
28944382,-0.0575243,0.0596548,-0.00639159,39.6,-3.75,37.5,0.354463,0.197589,9.7296
28967203,-0.0777643,0.0681769,-0.00532632,39,-3,37.5,-0.270637,0.29339,10.0769
28979417,0.0458064,0.0585895,-0.00852211,38.1,-4.35,36.3,-0.107776,0.453856,9.84217
29002203,-0.0607201,0.0639159,-0.00319579,39.45,-4.05,35.85,-0.354463,0.417931,9.76313
29014378,0.138484,0.122505,-0.0255663,37.8,-4.95,36.45,0.141306,0.626298,10.8241
29037211,-0.104396,0.0436758,-0.0330232,40.2,-4.35,36.3,-0.198787,0.540077,9.46854
29050379,0.0234358,0.0873517,-0.0511327,39.6,-4.95,35.7,-0.105381,0.432301,10.5942
29073203,0.126766,0.0649811,-0.0245011,40.2,-4.8,35.85,-0.0143701,0.413141,9.28892
29085378,0.0713727,0.144876,-0.0372843,39.9,-4.35,37.65,-0.548459,1.34001,10.6325
29108217,0.0681769,0.109722,-0.0468716,40.2,-4.35,36.9,-0.826282,1.04064,10.2541
29121378,-0.00639159,0.0543285,-0.0287621,39.6,-3.75,34.95,-0.742456,0.990341,10.2996
29134375,0.0969391,0.0862864,0.00745685,40.35,-3.45,35.7,-0.323328,0.664618,10.1224
29157212,-0.00426106,0.134223,-0.00852211,40.2,-4.05,36.3,-0.340093,1.19631,10.1344
29170379,0.0916127,0.1012,0.0223706,39.3,-3.45,37.5,-0.294587,1.65376,10.5295
29193203,0.0756338,0.0958738,-0.0266316,40.2,-4.05,36.3,-0.287402,1.05501,9.88288
29205377,0.0703075,0.108657,-0.0436758,39.45,-5.1,35.25,-0.419128,0.226329,10.0793
29228203,0.00213053,0.127832,-0.0106526,39.6,-2.7,36.45,-0.289797,0.31734,10.2158
29240378,0.108657,0.04048,-0.0298274,40.5,-3.6,35.85,-0.598755,0.152084,9.90444
29263203,0.0117179,0.115049,-0.0223706,39.45,-4.8,34.8,-1.152,-0.0419128,9.60506
29275387,0.123571,0.124636,-0.00213053,40.05,-4.2,34.95,-1.09931,0.657433,9.95234
29298209,0.116114,0.0617853,-0.0213053,40.35,-3,36.45,-0.538879,-0.063468,10.0601
29310377,0.0585895,0.0681769,0.00852211,40.35,-3.75,34.65,-0.510139,-0.173639,9.99066
29333203,0.00426106,0.0585895,-0.00745685,39.3,-4.95,35.4,-0.414338,0.34129,10.1631
29345375,0.0713727,0.0553937,0.0117179,39.45,-4.05,36.6,-0.416733,1.19631,10.2589
29368203,0.0809601,0.0649811,0.0298274,41.1,-3,35.4,-0.428709,1.10051,10.3164
29380376,0.0234358,-0.00745685,0.0138484,39.45,-4.35,35.55,-0.220342,0.152084,10.0218
29403217,0.04048,0.0319579,0.0138484,39.3,-3.75,35.4,-0.275427,0.968785,10.235
29416378,0.0340885,0.0276969,0.00639159,40.2,-4.05,36.3,-0.495769,0.559237,10.0721
29439203,0.0170442,0.00319579,-0.00426106,40.35,-3.45,36.75,-0.407153,0.643063,10.1248
29451378,-0.00852211,0.0170442,0.00213053,40.2,-4.35,35.25,-0.555645,0.710123,10.1272
29474209,-0.0245011,-0.00532632,0.00958738,39.3,-4.2,34.95,-0.608335,0.731678,10.096
29487379,-0.0170442,-0.00852211,0.0106526,40.2,-3.3,35.25,-0.447869,0.678988,10.0913
29500377,-0.0372843,-0.00319579,0.00319579,40.05,-4.95,34.95,-0.579595,0.683778,10.1104
29523217,-0.0149137,-0.00532632,0.0127832,40.05,-3.75,34.35,-0.63468,0.683778,10.1008
29536379,-0.0372843,-0.0117179,0.00319579,40.35,-3.45,35.7,-0.603545,0.602347,10.1248
29559203,-0.0255663,-0.00639159,0.0170442,40.35,-4.5,36,-0.593965,0.674198,10.1918
29571377,-0.0255663,0.00106526,0.0127832,39.15,-4.8,34.2,-0.469424,0.628693,10.0194
29594209,-0.0245011,-0.00852211,0.00426106,40.35,-5.25,35.4,-0.490979,0.710123,10.1655
29607382,-0.0213053,0.0106526,0.0106526,39.9,-4.35,34.8,-0.57241,0.640668,10.0936
29630203,-0.0255663,0.00213053,0.00639159,41.4,-4.5,35.4,-0.469424,0.583187,10.0673
29642382,-0.02024,-0.0170442,0.00852211,41.25,-3.6,35.55,-0.555645,0.511337,10.0745
29665203,-0.0138484,-0.036219,0.015979,40.05,-3.75,35.7,-0.469424,0.628693,10.0026
29677378,-0.0181095,-0.04048,0.0255663,40.65,-4.5,35.7,-0.512534,0.542472,10.0386
29700242,-0.00745685,-0.0340885,0.0287621,39.45,-5.55,35.55,-0.598755,0.616718,10.132
29713378,0.0713727,0.123571,0.0213053,40.05,-4.2,34.95,-0.953218,1.13404,10.1368
29736203,-0.118244,0.646616,0.36219,40.2,-4.05,35.85,-1.73399,1.51724,9.6362
29748378,-0.02024,-0.20027,0.00319579,40.5,-3.3,35.85,-0.191602,1.19631,10.4577
29772210,-0.00532632,-0.00958738,0.0234358,39.45,-3.6,36.3,1.00351,1.16757,10.0769
29785379,-0.0575243,-0.0703075,0.00745685,39.45,-3.6,35.55,0.227527,0.702938,10.029
29798377,-0.0660464,-0.166181,-0.0213053,39,-3.75,34.95,-0.261057,0.537682,10.2397
29821217,-0.0596548,-0.0585895,0.0213053,40.65,-4.2,36.75,-1.27176,0.0898132,9.70565
29834379,0.0330232,-0.0383495,0.0415453,39.3,-3.45,36,-0.914898,0.513732,10.2493
29857203,0.015979,-0.0149137,0.0394148,40.2,-4.35,35.55,-0.347278,0.726888,9.84935
29869377,0.00532632,-0.00532632,0.0383495,39.45,-3.6,35.25,-0.373623,0.544867,10.2948
29892209,0.0351537,-0.0458064,0.0266316,39.6,-3.75,35.7,-0.225132,0.599952,10.0457
29905382,-0.00106526,-0.0340885,0.0276969,39.15,-3.6,34.5,-0.210762,0.585582,10.2421
29928203,0.0330232,-0.0223706,0.0191748,39.6,-3.75,34.95,-0.411943,0.645458,10.0721
29941382,-0.00213053,-0.0149137,0.0149137,39,-3.75,35.4,-0.440684,0.576002,10.0769
29954379,0.0138484,-0.0106526,0.02024,39.6,-3.75,36.45,-0.507744,0.542472,10.0625
29977203,0.0170442,-0.0117179,0.0245011,40.35,-3.75,36,-0.467029,0.516127,10.1152
29990378,0.0394148,-0.00106526,0.0181095,40.5,-4.35,35.85,-0.352068,0.667013,9.9715
30013209,0.0287621,0.00852211,0.0170442,39,-3,35.7,-0.332908,0.573607,10.041
30025379,0.1012,0.0287621,0.0191748,39.15,-4.35,34.5,-0.256267,0.573607,10.017
30048203,0.0681769,0.0266316,0.0223706,40.35,-3.75,36.75,-0.419128,0.475411,9.91162
30060405,0.149137,0.0170442,0.0383495,38.55,-4.2,36.75,-0.467029,0.468226,10.1703
30083203,0.148072,0.00745685,0.0458064,40.35,-3.45,34.65,-0.435894,0.573607,9.94755
30095377,0.145941,0.0213053,0.0436758,38.4,-4.8,36.9,-0.387993,0.568817,10.1871
30118247,0.210922,0.0191748,0.0213053,39.3,-3,36.75,-0.342488,0.592767,9.95473
30131379,0.201335,0.056459,0.0181095,39,-2.7,36,-0.368833,0.643063,10.005
30154203,0.255663,0.0830906,0.00745685,39.3,-2.4,35.7,-0.342488,0.817899,9.99784
30166377,0.295078,0.107592,0.00106526,39.9,-3.3,36.6,-0.215552,0.88496,9.97629
30189217,0.327036,0.138484,0.00106526,39,-2.7,35.4,-0.220342,0.734074,9.96671
30202382,0.413323,0.14168,0.00745685,39.45,-2.85,36.3,-0.433499,0.777184,9.90444
30225203,0.464455,0.15979,0.015979,40.65,-2.4,35.4,-0.536484,0.872985,10.0266
30237401,0.568851,0.225836,0.0372843,38.4,-1.05,36.6,-0.58199,0.901725,9.74637
30260204,0.670051,0.259925,0.036219,39.15,-2.85,34.5,-0.519719,0.808319,9.80864
30272376,0.826645,0.306796,0.0436758,40.35,-0.9,35.7,-0.486189,0.906515,9.66015
30295207,1.05887,0.334493,0.0671117,40.35,-3,35.7,-0.584385,0.940045,9.77511
30307380,1.21227,0.348341,0.14168,40.65,-0.45,35.4,-0.61552,0.468226,9.67691
30330203,1.49776,0.371777,0.186421,40.65,-0.45,34.95,-0.869392,1.18673,10.1655
30342376,1.27725,0.348341,0.239684,41.4,-0.45,34.95,-1.08255,2.1639,10.6038
30355378,1.4168,0.294013,0.279099,40.35,0.15,35.4,-0.775986,2.04894,10.2829
30378209,1.38165,0.343015,0.312122,40.5,0.3,34.8,-0.704136,2.41059,11.0181
30391379,1.40402,0.377104,0.450607,40.5,3.3,34.5,-0.538879,3.02132,11.9426
30414203,1.2698,0.286556,0.536893,40.95,3.3,35.55,-1.61664,3.02611,10.4266
30426384,1.25062,0.150202,0.580569,41.4,3.75,33.6,-2.00224,3.15065,10.9582
30449203,1.3891,0.076699,0.560329,40.65,4.95,33.9,-2.07169,3.0309,11.1618
30461377,1.22292,0.0458064,0.572047,40.65,5.7,34.35,-1.20709,2.75308,9.59069
30484217,1.41787,0.0735032,0.613592,41.25,5.85,34.8,-0.981958,2.19983,11.4756
30497379,1.27938,0.0426106,0.639159,40.5,7.65,34.8,-0.593965,1.23463,11.0253
30520203,0.795752,0.02024,0.666856,40.35,7.5,35.4,-0.61552,0.338895,11.1834
30532377,0.551807,0.0319579,0.639159,41.1,9,35.7,-0.790356,-0.33171,11.7941
30555209,0.434628,0.0319579,0.612527,40.65,9.75,33.9,-0.265847,-0.643063,9.20749
30567382,-0.00639159,0.0127832,0.583765,42.9,10.8,34.65,-0.395178,-0.882565,11.3007
30590203,-0.144876,-0.0394148,0.54222,41.4,12.3,33.9,-0.431104,-1.16997,10.5798
30602382,-0.646616,-0.105461,0.456998,40.35,14.25,34.35,-1.04423,-1.3448,9.56674
30625203,-0.759533,-0.168312,0.315318,40.5,13.95,34.8,-1.47533,-1.30169,10.4936
30638378,-0.957673,-0.125701,0.155529,40.5,15.9,34.5,-1.8777,-0.882565,9.42064
30661217,-1.2634,-0.0905475,-0.0607201,41.1,15.6,34.65,-2.27527,-0.623903,10.7451
30673378,-1.31134,-0.0170442,-0.290817,40.95,16.65,35.25,-2.0214,-0.0778381,10.781
30696203,-1.63198,0.0713727,-0.466586,42.15,17.55,33.3,-1.94236,0.470621,11.1067
30708378,-1.88232,0.0500674,-0.631702,42.45,20.1,36,-1.78189,0.9137,11.636
30731203,-1.90576,0.0383495,-0.649811,43.2,18.6,35.7,-0.61552,1.17955,10.6685
30743377,-1.975,0.015979,-0.565655,43.95,20.1,37.5,-0.713716,1.67053,11.2624
30766203,-2.04637,-0.0479369,-0.531567,46.05,20.55,39.15,-1.35319,1.87889,11.3654
30778415,-2.09005,-0.102265,-0.535828,46.35,20.55,39.9,-1.65017,2.02259,10.6205
30801203,-1.91321,-0.106526,-0.52411,46.2,22.5,41.1,-1.77231,2.32676,11.2983
30813377,-1.98033,-0.0245011,-0.50387,49.5,21.75,46.05,-1.48491,2.5495,11.0253
30836203,-1.96115,0.0223706,-0.459129,50.85,21,49.2,-1.38193,2.53992,11.0876
30848384,-1.70442,0.056459,-0.38456,52.5,19.8,51.15,-0.924478,2.81295,10.9942
30861377,-1.86847,0.140615,-0.322775,55.2,17.4,52.65,-0.63947,2.93749,12.0504
30884203,-1.69164,0.194943,-0.289752,55.35,14.55,58.05,-0.893342,3.00455,13.0419
30897398,-2.01655,0.251402,-0.305731,57,13.65,59.7,-1.33163,2.82014,11.3822
30920204,-1.86741,0.209857,-0.36432,56.4,9,60.45,-1.44659,2.34353,10.4433
30932376,-1.47539,0.201335,-0.396278,57.45,7.2,60.9,-1.20709,2.41298,9.03505
30955205,-1.47326,0.190682,-0.44528,58.5,1.65,62.25,-1.34121,2.31,10.2924
30967380,-1.11533,0.0820254,-0.455933,58.35,-0.3,62.85,-0.917293,2.1663,9.02786
30990203,-1.02265,-0.00213053,-0.383495,57.75,-3,60.9,-0.122146,2.48244,11.478
31002376,-1.12598,0.102265,-0.225836,56.7,-5.25,61.95,0.239502,2.6453,11.569
31025217,-1.32625,0.209857,-0.110787,56.25,-9.6,60,-0.397573,2.42256,9.8278
31038378,-1.02585,0.20027,-0.0330232,56.1,-8.7,58.8,-0.701741,2.0657,7.96926
31061203,-0.781904,0.196009,0.00639159,54.9,-11.55,59.1,-0.62989,1.99625,7.55492
31074378,-0.54435,0.18003,-0.00213053,54.6,-12,59.1,-1.32684,2.11839,8.43869
31097209,-0.403735,0.0894822,-0.0756338,54.6,-12.75,57.75,-1.50647,2.33155,8.31175
31109379,-0.151268,-0.00745685,-0.136354,54.3,-14.25,58.05,-1.22865,2.36029,8.80513
31132203,-0.239684,-0.0213053,-0.137419,53.85,-14.85,57.3,-0.924478,2.08007,9.32724
31144384,-0.0532632,-0.0191748,-0.140615,52.65,-15.9,56.55,-0.869392,1.33522,7.91178
31167203,0.126766,-0.04048,-0.142745,53.85,-17.55,55.65,-0.946033,1.19152,7.89981
31179377,0.239684,-0.0330232,-0.15979,53.4,-17.4,55.05,-1.11608,1.17715,8.7692
31202217,0.367516,0.0394148,-0.147006,53.25,-17.85,55.35,-1.0083,0.784369,8.31415
31215379,0.751011,-0.00106526,-0.278034,53.7,-15.15,55.5,-0.5772,1.73519,6.80768
31228376,1.37313,-0.0884169,-0.313188,55.8,-15.15,55.05,1.93278,-1.08854,14.9603
31251203,-0.052198,-0.0532632,-0.211988,53.55,-15.6,55.65,-0.469424,-4.32421,10.132
31263382,0.519849,0.0948085,-0.185356,54.15,-14.7,55.8,0.608335,-3.61528,8.01716
31286203,1.00348,0.189617,-0.11931,53.85,-16.35,56.25,0.984353,-1.95793,7.76808
31298378,0.945955,0.264186,0.00319579,55.5,-15.15,56.1,0.955613,-1.27535,12.2971
31321217,0.823449,0.28123,0.174703,53.25,-14.25,55.95,1.34121,-1.64179,9.22186
31334378,1.18138,0.197074,0.388821,54.75,-13.2,54.75,-0.239502,-1.1532,10.5774
31357203,0.536893,0.052198,0.350472,56.7,-12,55.65,-2.96024,-0.118553,13.8634
31369378,0.823449,0.00958738,0.199204,57.6,-12.15,56.1,-4.11464,-0.748444,8.54167
31392209,0.715858,-0.125701,0.0351537,57.3,-10.65,56.1,-3.22609,-0.980761,10.132
31405379,0.860734,-0.233293,0.00852211,58.65,-11.4,54.75,-1.2981,-0.992736,8.76441
31428203,0.962999,-0.365386,0.0745685,57.6,-11.1,55.8,-0.790356,-1.14841,8.32373
31440403,1.32306,-0.533697,0.0798948,58.95,-9.75,57,-1.17835,0.461041,11.0229
31463203,0.697748,-0.448476,0.120375,59.1,-8.1,57.15,-0.902922,2.92552,18.8235
31475377,0.143811,-0.251402,0.0255663,58.2,-9.75,56.25,-0.570015,0.597557,8.56323
31498248,0.32171,-0.258859,-0.0106526,58.5,-9.3,56.7,-0.275427,-0.461041,12.1126
31511379,0.239684,-0.311057,0.0511327,58.35,-8.1,57.6,-0.296982,-0.995131,8.35486
31534203,0.401605,-0.513457,0.0458064,58.5,-8.25,57.75,-0.356858,-0.295785,9.55956
31546377,0.596548,-0.657268,0.015979,57.45,-8.7,58.05,-1.28134,-0.417931,7.77287
31559420,0.90867,-0.702009,-0.0905475,57.45,-8.25,58.35,-2.12917,0.587977,10.1918
31582203,0.836233,-0.358994,-0.104396,57,-4.8,59.25,1.28134,2.19264,13.5401
31594373,-0.472977,-0.197074,0,56.1,-6,59.1,2.06211,0.643063,9.35837
31617209,0.855407,-0.0255663,0.00639159,57.3,-6.6,58.2,-0.174836,0.386796,11.9282
31630379,-0.0170442,-0.0117179,0.0266316,56.55,-6.9,58.2,1.45617,0.741259,9.24581
31653203,0.330232,0.02024,0.0308927,56.25,-5.55,58.95,-0.974773,0.583187,11.8324
31665378,0.12144,0.0500674,0.0213053,56.7,-5.25,59.85,0.474214,0.779579,9.56435
31688217,0.127832,0.0575243,0.0191748,57,-5.85,58.95,-0.179626,0.583187,10.999
31701378,0.133158,0.0308927,0.0255663,56.25,-5.55,58.65,-0.155676,0.556842,9.63859
31724203,0.109722,0.02024,0.0319579,57.75,-6,59.4,-0.198787,0.599952,10.6325
31736382,0.142745,0.015979,0.0255663,58.2,-4.5,58.8,-0.0407153,0.901725,9.81103
31759209,0.0490022,0.0671117,-0.00106526,57.15,-5.7,59.4,-0.752036,1.05261,10.5056
31772377,0.144876,0.0575243,0.0276969,58.65,-5.55,58.2,-1.28613,0.556842,9.92599
31795203,0.0149137,0.0969391,0.0181095,58.35,-6.15,57.6,-1.30289,0.27423,10.1823
31808381,0.076699,0.0735032,0.0532632,58.65,-5.1,58.2,-0.828677,0.702938,10.1631
31821379,0.0958738,0.0660464,0.0383495,57.3,-5.85,57.6,-0.198787,0.849034,9.86372
31844203,0.0958738,0.0319579,0.0234358,58.2,-3.75,58.8,0.536484,0.432301,10.0338
31856381,0.0990696,0.0138484,0.0245011,57.6,-4.35,58.2,0.699346,0.645458,10.223
31879210,0.0660464,0.0617853,0.0127832,58.05,-5.1,58.95,1.09692,0.528102,10.1415
31892377,0.00319579,0.00958738,-0.0447411,57.45,-4.95,58.35,1.08494,0.667013,10.199
31915205,-0.0500674,0.0308927,-0.0628506,58.35,-4.35,58.2,-0.0335303,1.8262,10.1368
31927380,0.00745685,0.0671117,-0.0458064,57.3,-6.15,57.6,-0.696951,1.26098,10.1511
31950203,0.0245011,0.0969391,-0.0255663,57.75,-5.7,58.05,-0.608335,0.645458,10.0649
31962375,-0.0213053,0.0905475,0.00213053,57.6,-4.05,58.2,-0.936453,1.37833,10.2948
31985217,0.0617853,0.1012,0.0245011,56.7,-5.25,57.75,-0.217947,1.18913,10.2661
31998379,0.02024,0.0543285,-0.0468716,57.6,-5.1,58.2,0.241897,0.911305,10.2206
32021203,-0.00106526,0.0415453,-0.0234358,58.35,-4.8,58.65,-0.174836,1.0119,10.1344
32033377,-0.0479369,0.0543285,-0.0255663,57.15,-4.5,57.75,-0.335303,0.614323,10.0529
32056203,-0.02024,0.0575243,-0.0170442,58.65,-4.05,57.9,-0.376018,1.33283,10.0721
32068378,-0.0138484,0.052198,-0.036219,59.25,-4.5,59.1,-0.265847,0.803529,9.94036
32091203,0.0181095,0.04048,-0.00958738,57.6,-5.1,58.2,0.105381,1.17955,10.5271
32104382,0.0255663,-0.00852211,-0.0276969,58.95,-4.5,57.75,0.0814307,0.511337,9.98347
32127203,-0.0340885,0.0660464,-0.0298274,58.2,-3.75,58.05,-0.304167,0.90412,10.1871
32140378,0.0181095,0.0916127,-0.0266316,57.45,-4.95,58.8,-0.548459,1.45258,9.97629
32153377,0.0181095,0.02024,-0.0319579,59.1,-4.8,57.9,-0.402363,0.564027,10.1703
32176209,0.0660464,0.052198,-0.00106526,58.5,-4.95,57,-0.464634,1.3951,10.0194
32189379,-0.036219,0.0660464,0.0106526,57.45,-4.2,57,-0.59157,0.698148,10.1631
32212203,0.0213053,0.0234358,0.00852211,58.95,-4.2,57,-0.459844,0.523312,10.0649
32224384,0.0532632,-0.0319579,0.0117179,58.2,-4.2,58.35,-0.435894,0.463436,10.1032
32247203,-0.0532632,0.0127832,-0.00426106,59.4,-5.1,58.2,-0.514929,0.925675,10.1583
32259377,-0.0117179,0.00213053,0.02024,58.5,-4.95,56.7,-0.804727,0.688568,9.95952
32282217,0.100135,-0.0596548,0.0287621,58.05,-4.35,57.15,-0.229922,0.33171,10.0984
32295379,-0.0436758,0.0468716,-0.0117179,58.35,-4.35,58.2,-0.189207,1.17955,9.97389
32318203,0.00639159,-0.0138484,-0.00745685,58.95,-4.2,57.3,-0.383203,1.62742,10.393
32331377,0.0245011,0.00213053,0.0181095,59.4,-5.85,58.2,-0.170046,1.28014,10.0721
32354209,-0.0916127,0.0138484,-0.0117179,59.25,-5.25,57.3,-0.728086,0.568817,10.3116
32367382,0.0245011,-0.00852211,0.00639159,58.95,-5.25,57.3,-0.759221,0.827479,10.005
32380377,-0.0436758,0.00745685,0.00958738,58.2,-4.95,58.8,-0.565225,0.820294,10.1511
32403203,0.0298274,0.0117179,0.00532632,58.65,-5.1,57.15,-0.5772,0.798739,10.096
32416377,-0.0372843,0.00852211,0.00958738,58.05,-5.1,57.6,-0.526904,0.765209,10.0434
32439203,-0.00426106,0.00532632,0.00532632,57.6,-5.1,57.9,-0.550855,0.765209,10.2086
32451378,-0.0308927,0.0234358,0.00958738,58.35,-5.1,58.2,-0.519719,0.750839,10.017
32474209,-0.0191748,0.00852211,0.00745685,59.25,-4.5,57.75,-0.538879,0.681383,10.1775
32487379,-0.0298274,0.00852211,0.00532632,59.4,-4.8,57.15,-0.651445,0.712518,9.9691
32510203,-0.0181095,0.00532632,0.0106526,58.65,-5.85,57.6,-0.390388,0.779579,10.2493
32523384,-0.0276969,0.00106526,0.00319579,58.35,-4.35,56.85,-0.414338,1.02866,10.0266
32546203,-0.0106526,0.00319579,-0.00106526,58.5,-4.5,58.35,-0.622705,0.734074,10.0936
32558377,-0.0340885,-0.00319579,-0.00852211,59.1,-5.1,57.6,-0.550855,0.90891,10.0721
32571675,-0.0138484,0.00639159,0.00426106,59.1,-6.15,58.95,-0.550855,0.688568,10.0218
32594203,0.00106526,0.00639159,0.0106526,58.95,-4.95,58.05,-0.66342,0.758024,10.1392
32607378,-0.0170442,-0.00958738,0.0117179,58.35,-6.6,56.55,-0.61552,0.868195,10.0434
32630203,-0.0223706,0.0298274,-0.00639159,57.15,-3.45,58.35,-0.167651,0.549657,9.99545
32642408,-0.0127832,0.0841559,-0.00106526,57.75,-3.75,57.75,-0.541274,0.86101,9.99784
32665203,0.00639159,0.04048,-0.00426106,58.5,-4.95,57.75,-0.716111,0.837059,10.1607
32678378,0.00745685,-0.00532632,0.00852211,57.75,-4.5,58.05,-0.613125,0.681383,9.9691
32701217,0.0319579,0.0191748,0.0138484,57.75,-4.95,57.3,-0.414338,0.820294,10.1224
32714378,-0.00319579,0.00852211,0.015979,59.85,-3.3,58.95,-0.138911,0.822689,10.0481
32737203,0.0287621,0.0468716,0.00319579,58.5,-5.25,57.3,0.0598755,0.710123,10.0601
32750378,-0.00852211,0.0735032,-0.0149137,57.3,-4.35,58.2,-0.172441,0.492177,9.99305
32763382,0.0543285,0.0394148,0.00852211,59.1,-5.1,58.2,-0.493374,0.781974,10.1775
32786203,0.00106526,0.0223706,0.00106526,57.6,-5.1,56.85,-0.56283,0.767604,9.99066
32799377,0.0596548,0.0149137,0,59.4,-5.55,56.85,-0.560435,0.621508,10.0505
32822217,0.04048,0.00958738,0.00745685,58.95,-4.95,57.75,-0.443079,0.645458,10.0577
32835379,0.0745685,0.00852211,0.0138484,57.75,-3.75,58.35,-0.385598,1.07896,10.1847
32858203,0.00532632,-0.00745685,-0.0127832,58.65,-5.85,56.55,-0.301772,1.01429,10.0745
32870377,0.0170442,-0.0181095,-0.00639159,59.25,-5.25,57.3,-0.438289,0.781974,10.0362
32893209,0.02024,-0.0255663,0.00106526,56.7,-4.95,58.05,-0.270637,0.973575,10.1296
32906382,0.0426106,-0.04048,0.00639159,59.4,-4.8,56.85,-0.476609,0.815504,9.98347
32929203,0.0607201,-0.0436758,0.0287621,58.65,-5.85,57.9,-0.308958,0.89454,10.235
32941382,0.0905475,-0.0426106,0.0319579,57.6,-5.1,57.9,-0.364043,0.844244,10.0362
32964203,0.100135,-0.0351537,0.0330232,59.4,-4.35,56.85,-0.443079,0.997526,10.1751
32976378,0.129962,-0.0191748,0.0330232,58.2,-4.95,57,-0.165256,0.925675,10.0002
32999246,0.12144,-0.0234358,0.0372843,57.3,-3.3,57.15,-0.313748,0.786764,10.1415
33012384,0.166181,-0.0298274,0.0308927,58.5,-4.5,58.05,-0.249082,0.829874,10.0889
33025377,0.138484,-0.0255663,0.0308927,57.45,-3.45,56.7,-0.385598,1.01908,10.0673
33048203,0.188552,0.015979,0.0436758,57.6,-4.8,58.65,-0.105381,0.959205,10.1823
33060408,0.210922,0.0500674,0.0308927,58.05,-4.35,57.6,-0.347278,0.97118,10.0529
33083203,0.22051,0.0905475,0.0213053,58.5,-4.2,58.35,-0.371228,1.12446,10.0865
33096377,0.243946,0.128897,0.00639159,58.05,-4.35,58.65,-0.364043,1.13883,10.0553
33119246,0.22264,0.135289,-0.00106526,57.75,-3.45,56.7,-0.550855,1.16278,9.98587
33132379,0.234358,0.122505,0.0106526,60.15,-4.35,58.65,-0.467029,1.07417,9.96431
33155203,0.324906,0.0894822,0.0308927,58.5,-3,57.3,-0.59157,0.980761,9.73918
33167377,0.258859,0.103331,0.0330232,59.25,-2.7,58.05,-0.285007,1.23224,10.2397
33190223,0.312122,0.122505,0.0149137,58.35,-2.55,57.15,-0.371228,1.30409,9.84696
33203382,0.294013,0.144876,0.00852211,58.35,-3.3,57.6,-0.308958,0.990341,9.85654
33226203,0.46339,0.149137,0.0394148,58.5,-1.95,57.3,-0.981958,1.35199,9.94036
33238417,0.372843,0.160855,0.0394148,57.6,-2.1,56.85,-0.811912,1.36875,9.96431
33261203,0.568851,0.144876,0.0298274,59.4,-1.05,57.15,-0.641865,0.999921,9.93797
33273375,0.551807,0.133158,0.052198,59.25,-0.9,57.75,-0.656235,1.32325,9.80385
33296203,0.804275,0.137419,0.0980043,60,-0.9,57.3,-0.778381,1.15081,9.80624
33308382,0.798948,0.189617,0.127832,59.1,-0.3,56.55,-0.249082,1.34241,9.86612
33331203,1.02372,0.24075,0.184291,59.4,2.55,56.85,-0.481399,1.87889,10.7547
33343378,1.08231,0.307861,0.255663,59.85,1.8,57.15,-0.510139,1.53401,9.64338
33366217,1.13025,0.4048,0.304666,60.6,0.45,56.25,-0.184417,2.13995,11.5594
33379378,1.31986,0.578439,0.414388,59.55,2.4,55.95,-1.1065,2.1136,10.4936
33392671,1.16646,0.575243,0.508131,60,5.7,55.35,-1.51365,1.83099,11.2361
33415206,1.44663,0.349407,0.444215,61.05,6,55.65,-2.10043,1.9244,10.9223
33428380,1.05994,0.0340885,0.355798,60.45,6.6,55.8,-1.91602,1.69208,11.6744
33451203,1.15368,-0.127832,0.371777,59.25,6,54.6,-0.780776,0.911305,11.9258
33464375,0.710531,-0.151268,0.466586,58.5,9.3,54.6,-0.237107,-0.571212,11.6839
33487217,0.760599,-0.191748,0.668986,58.05,10.65,55.05,-0.802332,-2.04894,11.8971
33500379,0.251402,-0.245011,0.747816,58.35,10.35,55.5,-1.17356,-2.57345,10.9343
33523203,0.0873517,-0.270577,0.702009,56.55,12.15,56.1,-1.2023,-2.65727,9.88049
33535381,-0.105461,-0.230097,0.590156,54.3,13.8,54.3,-1.32924,-2.50399,10.2948
33558210,-0.441019,-0.211988,0.435693,53.55,12.75,55.65,-1.55197,-2.37466,10.5343
33571379,-0.811731,-0.234358,0.270577,52.8,13.05,55.65,-1.69088,-2.22138,10.9487
33584377,-1.00774,-0.16192,0.160855,51.9,11.85,55.5,-1.41067,-2.12318,10.1368
33607217,-1.32732,-0.0458064,0.0490022,49.65,11.55,54.3,-1.53521,-1.50287,11.5786
33620379,-1.58511,0.02024,-0.092678,48.9,12,54.3,-1.82261,-1.19871,11.284
33643203,-1.85569,0.0852212,-0.216249,48,11.1,55.05,-1.55437,-0.652643,11.0564
33655380,-1.83865,0.156594,-0.275903,47.25,11.85,53.7,-1.30768,-0.370031,11.3031
33678210,-2.09005,0.201335,-0.322775,45.15,9.15,54.45,-1.59269,0.159269,11.5714
33691379,-2.07087,0.205596,-0.379234,46.35,10.05,54.9,-1.66454,0.781974,12.5366
33714203,-2.21149,0.245011,-0.428236,45.9,10.65,57.15,-1.30529,1.17236,11.6025
33726382,-2.2296,0.318514,-0.403735,46.2,8.4,56.85,-0.574805,1.59389,12.5917
33749203,-2.26475,0.308927,-0.353668,45.9,6.9,59.25,-0.376018,1.67292,11.4923
33761377,-2.12201,0.235423,-0.32171,46.35,6,60.15,-0.421523,1.80465,10.5391
33784217,-1.97287,0.0862864,-0.320645,46.8,4.2,60.45,-0.490979,1.69687,9.87809
33797379,-1.56594,-0.0394148,-0.300405,46.95,2.85,60.75,-0.462239,1.63221,9.56674
33810377,-1.00348,0.0181095,-0.227967,47.25,0,61.35,-0.486189,2.10642,12.1629
33833203,-1.92493,0.399474,-0.239684,47.7,-1.35,62.1,-0.64905,3.268,14.0143
33846382,-1.72466,0.487891,-0.316384,47.85,-2.4,63,-1.42743,2.45609,12.7377
33869203,-1.71188,0.427171,-0.380299,49.65,-4.95,61.5,-1.2023,1.96511,7.86149
33881378,-1.14196,0.214118,-0.412257,48.75,-5.85,62.1,-1.04902,2.73152,11.0445
33904217,-1.01307,-0.0287621,-0.315318,49.2,-8.25,60.45,-0.570015,2.95186,10.2589
33917378,-1.64903,-0.172573,-0.142745,50.7,-9.75,61.95,0.62031,3.36381,14.0814
33940203,-1.44769,0.0713727,0.154463,50.7,-10.05,61.95,1.53521,3.47158,10.9127
33952378,-1.6991,0.337689,0.374973,50.85,-13.65,60.3,0.282612,2.63093,6.46998
33975209,-0.855407,0.236489,0.438889,50.55,-12.9,60.3,-0.991538,2.53034,8.36444
33988379,-0.80534,0.18216,0.396278,51,-13.05,59.1,-1.15679,2.34832,6.91545
34011203,-0.547546,0.135289,0.241815,50.7,-14.25,58.8,-2.40939,1.83339,8.65903
34023384,-0.315318,0.0245011,0.00852211,52.65,-15.15,57.6,-2.75906,1.5867,9.36795
34046203,-0.507066,-0.0308927,-0.157659,52.65,-14.7,59.25,-1.59748,1.08135,8.87219
34058377,-0.259925,0.0415453,-0.193878,53.4,-15.45,58.95,-1.25978,0.810714,8.65903
34081203,-0.144876,0.0660464,-0.187487,52.5,-16.35,57.75,-1.28852,0.722098,7.94531
34093378,0.00532632,0.0553937,-0.160855,52.05,-15.6,58.05,-1.15679,0.772394,9.40148
34116203,0.149137,-0.0213053,-0.13955,53.25,-14.85,57.3,-1.38193,0.475411,7.52139
34128377,0.248207,-0.0223706,-0.170442,52.35,-17.7,57.6,-1.33403,-0.34129,7.97884
34152224,0.970456,-0.0575243,-0.268447,53.7,-14.7,57.6,-3.65241,-1.19152,6.20413
34165379,0.753142,-0.144876,-0.319579,52.5,-15.6,57.75,-0.467029,-3.47158,16.2249
34178376,0.072438,-0.0426106,-0.274838,53.7,-13.95,57.9,-2.25371,-4.2811,7.42559
34201217,0.759533,-0.0181095,-0.353668,53.7,-15.9,58.2,-0.668211,-3.67755,7.07592
34214378,0.997087,0.0852212,-0.429302,53.4,-15.9,58.2,-0.0646655,-3.16741,8.21116
34237203,1.05887,0.13955,-0.370712,54.75,-13.95,58.65,0.371228,-2.99976,8.16566
34249377,1.59683,0.132093,-0.223706,55.8,-13.65,59.25,1.04662,-2.45609,6.68553
34272209,1.73319,0.211988,-0.02024,54.6,-13.8,59.1,0.593965,0.851429,19.1851
34285382,-0.0777643,0.314253,0.00426106,55.35,-12.75,57.75,0.213157,0.353265,11.4085
34308203,0.916127,0.297209,0.0830906,56.1,-11.55,59.1,-0.538879,-2.43933,8.4339
34321382,0.654072,0.124636,0.209857,56.55,-11.4,60,-1.51844,-1.28253,12.0504
34344203,0.586961,-0.0649811,0.20027,57.6,-8.85,59.7,-2.68721,-1.32804,8.87698
34356378,0.80534,-0.127832,0.0830906,58.05,-10.35,58.2,-3.09437,-1.42863,9.52363
34369377,0.917193,-0.231162,-0.0223706,58.35,-10.35,60,-2.07648,-1.26577,8.88177
34392209,0.830906,-0.372843,0,57.6,-8.85,60.3,-1.07536,-1.04064,9.83738
34404379,0.940628,-0.441019,0.0245011,59.1,-8.1,60.75,-1.06818,-0.844244,9.61704
34427203,1.01733,-0.518784,0.00852211,58.2,-6.75,62.25,-1.03944,-0.197589,10.235
34439423,0.843689,-0.526241,0.0266316,58.2,-6.45,60.9,-0.692161,-0.0538879,11.0421
34462203,0.673247,-0.493217,0.0138484,59.4,-5.85,62.4,-0.0335303,0.183219,10.6373
34474377,0.695618,-0.423975,0.015979,57.6,-4.05,62.85,-0.598755,-0.226329,10.3499
34497215,0.709466,-0.339819,-0.0319579,57.15,-4.95,63.6,-0.675396,0.065863,10.8912
34510379,0.755272,-0.396278,-0.0266316,57.6,-3.6,63.9,-0.593965,0.520917,10.9127
34533203,0.498544,-0.389887,-0.0713727,57.15,-2.7,63,-0.495769,0.990341,12.1701
34545377,0.437824,-0.287621,-0.0607201,57.45,-2.7,64.05,0.251477,0.714913,11.4995
34568217,0.299339,-0.229032,-0.0607201,58.2,-3,64.05,0.452659,1.47413,12.1126
34581379,0.26312,-0.140615,-0.0394148,57.75,-1.95,64.65,-0.922083,-0.0179626,8.5776
34604203,0.239684,-0.12144,-0.0319579,57.3,-1.8,64.5,0.0167651,-0.0682581,11.3989
34616378,0.229032,-0.0447411,0.00958738,57.3,-3.3,65.25,-0.134121,0.492177,9.59788
34639210,0.147006,0.00106526,-0.00532632,58.95,-1.65,65.1,0.150886,0.525707,11.1666
34652375,0.11931,0.0628506,0.00852211,59.1,-1.35,64.95,-0.0670606,0.892145,10.2757
34665377,0.0255663,0.0788296,-0.02024,57.3,-1.05,65.25,0.0502954,0.370031,10.2326
34688217,0.118244,0.0862864,0.00213053,59.85,-1.35,65.55,-0.354463,0.389191,10.3044
34701379,0.0681769,0.109722,0,57.45,-1.2,65.4,-0.356858,0.463436,9.94755
34724203,0.0351537,0.0905475,-0.00106526,57.6,-1.8,64.95,-0.380808,0.228724,10.2206
34736378,0.0980043,0.0266316,-0.0415453,59.55,-2.4,64.65,-0.282612,0.578397,10.0553
34759210,0.0681769,0.0287621,0.00958738,57.15,-1.2,65.1,-0.850232,0.451461,10.199
34772375,0.104396,0.0447411,0.015979,59.25,-1.2,65.1,-0.531694,0.583187,10.199
34795203,0.0479369,0.0532632,0.00958738,58.65,0.3,65.55,-0.768801,0.453856,10.1248
34807380,0.0553937,0.0798948,0.02024,58.65,-0.6,64.95,-0.459844,0.456251,10.7116
34830203,0.0330232,0.0468716,-0.00319579,58.05,-1.8,65.25,-0.483794,0.935255,9.9212
34843375,-0.0511327,0.0873517,0.0191748,58.35,-1.8,65.55,-0.59636,0.34129,10.0793
34866217,0.0170442,0.111853,0.02024,59.25,-1.2,64.35,-0.63468,-0.334105,9.66733
34879379,0.0458064,0.107592,0.0298274,58.35,-0.3,64.2,-1.07536,0.405956,10.1847
34892377,0.0596548,0.110787,0.00639159,57.6,0,64.95,-0.469424,0.717308,9.9715
34915203,-0.00745685,0.0894822,-0.00319579,60,0.45,65.7,-0.62031,0.695753,10.4313
34927382,0.0308927,0.0884169,0.0383495,59.25,0.45,64.35,-0.148491,0.583187,9.67212
34950203,-0.00532632,0.0820254,-0.0447411,59.1,-0.6,64.5,-0.399968,0.8658,10.3571
34962377,0.0660464,0.0735032,0.0213053,58.5,-0.15,63.3,-0.833467,0.487386,10.2326
34985203,0.0223706,0.036219,0.00639159,58.95,-1.65,64.05,-0.0143701,0.484991,10.0146
34997378,0.00958738,0.0415453,0.00958738,59.25,-0.45,63.6,0.0646655,0.386796,10.2948
35020203,0.0181095,0.0553937,-0.00639159,59.1,0,64.95,-0.102986,0.980761,10.2469
35032377,0.0628506,0.0660464,0.0127832,59.25,-0.15,65.4,-0.282612,0.518522,10.3355
35055209,0.00213053,0.0383495,-0.0106526,61.05,-0.45,64.65,-0.720901,1.09812,9.91881
35068382,0.00852211,0.00852211,-0.00319579,59.4,-0.6,64.5,-0.744851,0.628693,9.95473
35091203,0.0596548,0.02024,-0.00319579,59.85,-2.55,65.55,-1.04423,1.50287,10.1871
35104382,0.0213053,0.0234358,0.00639159,60.45,-1.05,64.95,-0.835862,0.90891,9.91641
35127203,0.0735032,0.0276969,-0.00213053,60,0.9,63.6,-0.292192,-0.231119,10.2948
35139378,0.0266316,0.0575243,0.0106526,59.4,-0.6,63.9,-0.608335,0.223934,9.76553
35162217,-0.0500674,0.0276969,-0.00532632,59.25,-1.65,65.1,-0.61073,1.45976,10.3715
35175378,0.0948085,0.0852212,-0.00852211,59.4,0.3,63.9,-0.855022,0.501757,9.72481
35198203,0.0500674,0.138484,-0.00745685,58.05,-1.05,64.5,-0.857417,0.233514,9.82301
35210378,0.00639159,0.207727,-0.0117179,59.1,-0.3,63.45,-0.874182,0.738864,10.199
35233209,-0.0287621,0.16192,-0.0308927,61.05,-0.15,63,-0.641865,-0.300575,9.87809
35245379,0.0245011,0.115049,-0.0340885,60,-0.15,64.05,-1.1544,0.477806,10.005
35268203,0.0106526,0.076699,-0.00958738,60.3,0.45,64.05,-1.07057,0.990341,10.2469
35281384,0.0500674,0.1012,0.00745685,60.6,-0.45,64.35,-0.886157,0.755629,10.0505
35294379,0.00639159,0.0543285,-0.00106526,60.15,-1.05,63.45,-0.699346,0.463436,10.1535
35317203,0.0255663,0.0511327,-0.00639159,61.5,0.6,63.15,-0.613125,0.839454,10.1176
35329377,0.015979,0.0383495,0.00213053,60.9,0.3,62.85,-0.725691,0.647853,10.132
35352209,-0.00532632,0.00745685,-0.00106526,61.8,-0.15,63.3,-0.677791,0.619113,10.029
35365382,-0.00745685,0.00106526,0.00426106,61.95,-0.6,64.2,-0.677791,0.655038,10.1056
35388203,-0.0191748,0.00213053,0.00532632,60.9,-0.6,63.45,-0.603545,0.683778,10.0721
35400402,-0.015979,-0.00426106,0.00639159,61.2,-0.6,63.9,-0.677791,0.726888,10.1799
35423203,-0.0308927,0,0.00532632,60.45,-0.6,62.85,-0.718506,0.631088,10.0649
35435378,-0.0213053,-0.00745685,0.00213053,60.6,0.45,64.05,-0.59636,0.722098,10.0817
35458247,-0.0511327,-0.00106526,0.00319579,61.5,-0.3,63.15,-0.579595,0.726888,10.1152
35471385,-0.0255663,0.00426106,0.0106526,61.05,-0.15,63.6,-0.684976,0.774789,10.0721
35494203,0.00852211,0.0138484,0.0138484,61.8,-0.45,63.6,-0.692161,0.758024,10.0505
35507378,-0.0181095,0.00852211,0.0213053,60.45,-0.3,63.15,-0.63947,0.674198,10.0769
35520704,-0.00213053,-0.0223706,0.00426106,61.5,0,63.15,-0.579595,0.767604,10.132
35543203,-0.0213053,-0.0117179,0.00426106,60.15,-0.6,63.9,-0.61073,0.667013,10.0577
35555376,-0.00639159,-0.00958738,0.00106526,60.3,-1.2,64.35,-0.63947,0.688568,10.1008
35578241,-0.0149137,-0.00426106,0.00426106,60.45,-0.3,64.5,-0.570015,0.643063,9.97629
35591385,0,0.00426106,0.00639159,61.35,-0.45,64.05,-0.646655,0.585582,10.1128
35614203,0.0234358,0.00852211,0.00852211,59.4,-0.3,63.9,-0.608335,0.695753,9.99066
35626378,-0.00106526,-0.0106526,0.0181095,60.15,0.3,63.45,-0.725691,0.604742,10.1511
35649217,0,-0.0426106,0.0223706,60.6,0.9,64.65,-0.589175,0.518522,10.0434
35662379,-0.0234358,-0.0735032,0.015979,60.15,-0.6,63.45,-0.560435,0.559237,10.1224
35685203,-0.0298274,-0.072438,0.0213053,58.95,-0.9,64.05,-0.785566,0.405956,9.97389
35697403,-0.00639159,-0.0681769,0.0330232,59.55,0.15,63.3,-0.768801,0.547262,10.0889
35720204,0.0308927,-0.0383495,0.0276969,60.9,-0.3,64.5,-0.747246,0.623903,9.94036
35732375,-0.00852211,-0.0692422,0.0308927,61.05,0.45,64.35,-0.768801,0.540077,10.0338
35755205,0.0340885,-0.0671117,0.02024,60.9,-0.3,64.95,-0.730481,0.722098,10.12
35767381,0.04048,-0.0628506,0.0213053,59.1,0,62.85,-0.498164,0.635878,10.1727
35790203,0.0596548,-0.0479369,0.0351537,60.6,-0.45,64.05,-0.55804,0.623903,10.1008
35802375,0.0713727,-0.0500674,0.0383495,60,-0.15,63.3,-0.543669,0.671803,10.005
35825217,0.0873517,-0.0511327,0.0649811,58.5,-1.2,64.05,-0.493374,0.374821,10.0146
35838379,0.102265,-0.04048,0.0553937,60.3,0.9,63.6,-0.538879,0.647853,10.1104
35861203,0.108657,-0.0245011,0.0553937,59.25,0.9,64.35,-0.208367,0.784369,10.096
35874377,0.0884169,-0.015979,0.0447411,59.55,0.45,64.05,-0.670605,0.765209,10.1296
35887381,0.108657,-0.00319579,0.0426106,59.85,-0.6,64.95,-0.608335,0.750839,10.1823
35910203,0.12144,-0.0191748,0.0372843,59.85,0,64.95,-0.512534,0.568817,9.95473
35922375,0.129962,-0.036219,0.0468716,60.15,-0.3,64.95,-0.526904,0.568817,10.1128
35945217,0.185356,-0.0372843,0.0500674,60,0.15,64.35,-0.294587,0.650248,9.97868
35958379,0.178964,0.0319579,0.0607201,61.05,0.9,63,-0.129331,0.755629,10.1799
35981203,0.254598,0.0181095,0.0351537,61.2,0.6,64.2,-0.407153,0.722098,10.0074
35994377,0.271642,0.0830906,0.0426106,58.2,0.9,64.05,-0.354463,0.604742,9.87809
36017210,0.386691,0.142745,0.0330232,60,2.4,63.6,-0.313748,0.758024,9.97389
36030379,0.546481,0.199204,0.0276969,59.4,2.55,64.95,-0.232317,0.576002,9.81822
36053203,0.690291,0.221575,0.0394148,61.35,1.95,63.6,-0.519719,0.496967,9.83498
36066382,0.823449,0.286556,0.0607201,60.45,3.6,64.2,-0.428709,0.652643,9.91162
36079379,1.00241,0.34195,0.111853,61.2,4.05,63.9,-0.584385,0.769999,9.68649
36102203,1.04183,0.365386,0.103331,61.35,5.25,63.3,-0.579595,1.32325,10.5032
36115379,1.1931,0.34408,0.111853,61.8,5.7,61.95,-0.668211,1.27295,9.87091
36138209,1.29643,0.329167,0.135289,61.05,6,63.3,-0.775986,1.43821,10.314
36151379,1.39443,0.446346,0.164051,62.7,8.4,63.15,-0.546064,1.58191,9.93318
36174203,1.4445,0.539024,0.245011,63.75,9.15,62.1,-0.570015,2.2142,10.6996
36187384,1.5915,0.515588,0.314253,63.45,13.05,61.5,-1.0586,3.31111,11.478
36210203,1.31454,0.44528,0.368581,63,12.45,62.1,-0.967588,3.28956,10.5343
36223377,1.26766,0.230097,0.356864,62.85,12.3,60.15,-1.43701,3.20094,11.3103
36236381,1.38697,0.0394148,0.292948,63.75,14.4,60.3,-2.06211,3.08838,9.55716
36259210,1.18777,-0.092678,0.250337,64.35,16.95,59.25,-1.75555,3.05245,10.2038
36272375,1.30388,-0.147006,0.225836,63.3,18,59.7,-1.37714,2.78661,9.4925
36295204,1.16114,-0.100135,0.24288,64.35,19.5,59.25,-1.22625,2.4058,9.80385
36307380,0.965129,-0.0990696,0.215183,62.85,19.35,59.4,-1.09692,1.30888,10.8936
36330203,0.597613,-0.0703075,0.251402,63.75,22.95,60.3,-0.294587,1.19631,12.1893
36343375,0.0607201,-0.0798948,0.26099,63.15,22.65,58.8,-0.344883,0.576002,9.90444
36366217,-0.2024,-0.0809601,0.22264,62.4,20.85,59.1,-0.661025,0.104183,10.6804
36379379,-0.150202,-0.11931,0.147006,64.05,22.5,58.95,-0.268242,0.235909,8.24469
36402203,-0.675378,-0.117179,0.0596548,63.9,23.1,58.05,-0.419128,0.123344,10.0841
36414377,-0.548611,-0.132093,0.0106526,63.15,23.1,58.35,-0.467029,0.142504,9.55237
36437210,-1.02798,-0.0958738,-0.02024,63.15,23.1,59.4,-0.273032,0.30776,9.31766
36449379,-0.939563,-0.0905475,-0.04048,63.45,23.1,60.15,-0.833467,0.853824,11.3343
36472203,-1.37845,-0.0830906,-0.109722,64.2,21.9,59.85,-1.12326,1.32325,10.1679
36484382,-1.47965,-0.104396,-0.184291,65.55,20.25,59.7,-1.0562,1.56515,10.9798
36507203,-1.44663,-0.104396,-0.224771,64.95,20.55,61.5,-0.998723,1.87171,9.84696
36519378,-1.54357,-0.0980043,-0.269512,66,19.8,61.2,-1.3005,2.43933,10.6852
36542217,-1.41361,-0.0884169,-0.294013,66.6,18,62.4,-1.152,2.65248,10.6086
36554378,-1.45089,-0.0426106,-0.26099,66.9,17.7,62.1,-0.857417,2.7387,10.793
36567376,-1.47539,-0.0287621,-0.213053,67.5,15.6,64.35,-0.912502,2.75068,11.4804
36590203,-1.42745,0.00532632,-0.151268,68.1,14.85,63,-0.768801,2.5495,10.3978
36603384,-1.42958,0.00213053,-0.0841559,69,12.9,64.2,-0.912502,2.47765,10.8241
36626203,-1.3401,0.015979,-0.0223706,67.65,12.9,64.2,-0.510139,2.19743,10.5631
36639377,-1.32625,0.0436758,0.0553937,66.75,10.8,65.7,-0.474214,1.89326,10.5966
36662217,-1.27938,0.0340885,0.107592,67.95,11.1,65.25,-0.555645,1.57473,10.8241
36675379,-1.3433,0.0639159,0.144876,68.4,6.6,64.95,-0.543669,1.35917,10.5391
36698203,-1.28364,0.0852212,0.151268,67.5,5.25,66.45,-0.826282,1.28972,10.5319
36710377,-1.31028,0.0500674,0.125701,67.95,4.05,64.95,-0.716111,1.14362,10.2445
36733209,-1.26553,0.02024,0.125701,66,2.7,64.35,-0.744851,0.973575,10.7235
36745382,-1.26553,-0.00213053,0.128897,64.05,1.35,62.85,-0.579595,0.681383,9.78948
36768203,-1.13344,-0.0181095,0.154463,64.35,0.3,62.4,-0.502954,0.566422,10.1344
36780377,-1.09935,0.0191748,0.211988,63.15,-0.15,61.5,-0.249082,0.468226,10.805
36803203,-1.1654,0.0543285,0.28336,62.25,0.6,62.4,-0.395178,0.449066,10.9127
36815378,-1.23464,0.0500674,0.337689,60.9,-0.6,61.05,-0.66342,0.32692,11.1331
36838241,-1.16327,0.0671117,0.376038,59.4,0.3,60.3,-0.914898,0.468226,9.84456
36851379,-1.10468,0.0884169,0.318514,59.25,-0.15,59.4,-1.68609,0.300575,9.62662
36864375,-0.971521,0.0330232,0.205596,58.05,0,59.7,-1.71962,0.226329,9.73918
36887203,-0.873517,0.0426106,0.134223,56.7,1.2,60.9,-1.14242,0.238304,8.99912
36909214,-0.647681,0.0841559,0.0980043,54.9,1.95,59.4,-1.1544,0.477806,9.98826
36921379,-0.831971,0.170442,0.0852212,55.35,0.9,61.5,-1.02746,1.51245,12.8767
36934375,-1.0365,0.201335,0.0394148,55.35,1.65,61.95,-1.31247,0.841849,8.88895
36957235,-0.791491,0.150202,-0.0234358,54.9,-0.15,61.5,-1.4442,0.434696,7.28908
36970382,-0.322775,0.14168,-0.0468716,54.15,-1.05,63.15,-0.962798,0.968785,8.39079
36993203,-0.336624,0.183225,-0.0149137,53.85,0.45,63.3,-0.502954,1.22984,8.46024
37006377,-0.209857,0.177899,0.0575243,53.7,1.8,62.4,-0.871787,1.30169,8.4794
37029214,0.194943,0.0809601,0.0213053,52.05,0.9,62.55,-1.79387,1.66095,8.07225
37042382,0.0500674,-0.0181095,-0.0841559,52.95,0.6,64.2,-1.69328,2.08486,11.2241
37065203,-0.100135,0.00319579,-0.113983,53.7,2.1,64.2,-1.39151,1.07896,9.2482
37077400,0.107592,0.02024,-0.108657,51.3,0.3,64.95,-1.50886,0.832269,8.10817
37100203,0.26099,0.0447411,-0.123571,51.75,1.65,64.05,-1.41785,0.892145,8.80033
37113378,0.432497,0.0543285,-0.185356,52.05,2.4,65.1,-1.83938,0.96639,7.79922
37126377,0.817058,-0.140615,-0.337689,52.95,1.8,66.3,0.249082,-0.171244,8.92488
37149214,0.44315,-0.0852212,-0.259925,53.25,1.95,64.35,-0.0407153,-2.57345,13.7005
37161379,0.350472,-0.168312,-0.24075,53.4,3.3,64.5,0.155676,-3.66797,9.94036
37184203,0.148072,-0.0809601,-0.0990696,52.8,4.2,66.15,-0.364043,-1.90524,8.35247
37196710,0.934237,-0.076699,-0.0937433,51.9,5.1,64.95,-0.0670606,-1.64897,9.39909
37219205,0.413323,0.0458064,-0.0692422,53.7,5.55,66.3,0.311353,-1.46216,9.80145
37231375,0.811731,0.0990696,0.036219,53.25,4.5,65.7,-0.0981958,-0.94244,11.6145
37254203,0.52411,0.136354,0.0990696,53.85,5.7,65.4,0.0502954,-0.784369,10.3427
37266380,0.298274,0.132093,0.122505,52.95,6.9,65.25,-0.888552,-0.963995,11.9905
37289203,0.516653,0.116114,0.132093,54.9,8.25,66.15,-1.89686,-1.31846,8.97757
37301375,0.434628,0.0330232,0.0905475,53.4,8.4,64.5,-1.94476,-1.31127,9.23623
37324217,0.649811,-0.0649811,0.0639159,54.75,8.1,67.05,-2.00224,-1.19152,9.02307
37336379,0.729706,-0.178964,0.0287621,54.15,9.9,66,-1.90165,-0.978366,9.26976
37359203,0.874582,-0.221575,0.0170442,53.55,11.25,65.4,-1.21428,-0.00359253,11.8803
37371377,0.487891,-0.22051,-0.02024,53.7,12.15,66.6,-1.02267,0.0395178,10.0434
37394202,0.631702,-0.219444,-0.0330232,53.7,12.45,66.3,-1.36277,-0.104183,11.1954
37406368,0.495348,-0.207727,-0.0713727,53.7,14.4,66,-0.859812,-0.30776,9.72721
37429204,0.52411,-0.231162,-0.0809601,53.55,14.85,66.15,-0.184417,-0.362845,9.88767
37441375,0.615723,-0.183225,-0.00958738,52.8,16.05,66.15,0.0287402,-0.34129,9.22665
37464205,0.741424,-0.14168,0.0394148,54.45,15.45,67.05,-0.261057,0.221539,10.9032
37476350,0.360059,-0.0511327,0.0245011,53.25,16.05,67.2,-0.723296,0.89933,13.267
37499315,0.335558,0.0340885,0.0127832,54.3,16.8,66.15,-0.60115,0.207169,9.38951
37512368,0.265251,0.0308927,0.00106526,54.15,18,66.3,-1.04423,-0.231119,9.85893
37535206,0.459129,-0.056459,-0.0394148,54.45,18,66.3,-1.50168,-0.156874,9.08295
37547353,0.593352,-0.126766,-0.0543285,54.45,17.7,66,-0.395178,0.358055,9.91402
37570202,0.531567,-0.167247,-0.0319579,54.75,17.4,66.6,-0.438289,1.45737,11.0181
37582371,0.449542,-0.165116,-0.0234358,55.5,20.7,65.55,-0.656235,0.887355,9.90683
37605204,0.444215,-0.0500674,-0.0266316,53.4,20.25,66.3,0.153281,1.16278,11.9977
37617463,0.137419,0.0330232,-0.00852211,54.3,21.15,66.45,0.112566,1.47653,11.5211
37640202,0.076699,0.0692422,-0.0245011,53.85,19.8,66.45,-0.993933,-0.27902,8.90811
37652357,0.155529,0.0969391,-0.00532632,54.6,21.6,65.7,-0.138911,0.24549,11.0564
37675204,0.111853,0.0937433,-0.0117179,55.2,21.45,67.05,-1.19272,0.559237,9.44938
37687368,0.12144,0.0852212,-0.00532632,53.7,21,66.6,-1.13763,0.808319,10.5822
37710204,0.117179,0.0745685,0.00426106,55.2,21.45,65.55,-0.543669,0.839454,9.92599
37722352,0.0820254,0.0479369,0.0223706,53.55,23.1,65.7,-1.00591,0.712518,10.5631
37745265,0.0894822,0.0245011,0.0117179,54.9,22.35,64.65,-0.821492,0.968785,10.1751
37758376,0.0830906,0.0628506,-0.00319579,53.7,22.2,65.25,-0.373623,0.199984,10.3379
37771656,0.0639159,0.0639159,-0.0170442,54.6,21.9,65.7,-0.723296,0.202379,10.0745
37794206,0.00852211,-0.0980043,-0.0372843,54.45,20.7,66.3,-0.00239502,1.05501,10.2278
37806372,0.0298274,-0.0756338,-0.0117179,55.2,22.2,66,-0.141306,1.14602,10.1296
37829205,0.0692422,-0.0468716,-0.0479369,56.1,20.85,65.4,-0.438289,0.97118,10.4888
37841350,0.00852211,-0.0649811,-0.0340885,54.9,23.1,66.45,-0.821492,1.36396,9.95952
37864265,-0.056459,-0.0298274,0.00106526,55.8,22.2,65.55,-1.02267,0.705333,10.2852
37877376,0.00958738,-0.0223706,-0.0213053,54.75,23.25,66,-1.02986,0.810714,10.0936
37900206,0.00213053,0.0830906,0.0245011,55.5,22.95,64.95,-0.905317,1.0574,10.4481
37912353,0.106526,0.0458064,-0.0127832,54.9,21.6,65.7,-0.843047,0.609532,9.94755
37935202,-0.0671117,0.0223706,-0.0234358,54.9,20.55,65.7,-0.59157,0.32213,9.9212
37947373,0.0777643,-0.0713727,-0.00426106,55.65,22.35,64.05,-0.816702,0.537682,10.096
37970204,-0.0351537,-0.0372843,0.00319579,56.1,22.65,65.4,-0.713716,0.758024,10.096
37982370,-0.0127832,-0.0681769,-0.00106526,53.85,21.9,66.15,-0.701741,0.664618,10.3188
38005210,-0.0223706,-0.0383495,0.0117179,54.45,23.7,67.35,-0.687371,0.619113,10.1272
38017350,-0.0266316,-0.0351537,0.00319579,54.45,21.75,66,-0.479004,0.645458,9.9212
38040365,-0.0276969,-0.0191748,-0.00426106,55.8,23.7,66,-0.680186,0.760419,10.1104
38053382,0.00639159,-0.0223706,0.00745685,54.6,21.6,65.7,-0.58678,0.686173,10.0673
38076204,-0.02024,-0.02024,0.00532632,54.45,22.5,66.6,-0.694556,0.595162,10.0577
38088355,0.0138484,-0.0287621,-0.00213053,55.5,22.2,65.55,-0.56283,0.779579,10.1439
38112268,-0.0117179,-0.00852211,0.0127832,54.9,22.35,65.7,-0.593965,0.602347,10.0146
38125379,-0.0138484,0,0.00213053,54.6,22.35,67.2,-0.65384,0.681383,10.1583
38138372,0.052198,-0.0138484,0.0191748,53.85,22.65,65.7,-0.440684,0.484991,10.1607
38161217,0.00745685,-0.00639159,0.0223706,54.9,22.35,65.7,-0.56283,0.501757,9.93318
38174378,-0.00319579,-0.0149137,0.0149137,54.6,21.6,65.4,-0.364043,0.616718,10.132
38197203,0.0234358,-0.0170442,0.0106526,54.6,21.9,66.75,-0.467029,1.08854,10.2373
38210378,-0.0213053,-0.00745685,0.00426106,54.6,21.9,66.15,-0.376018,0.916095,10.0266
38233209,-0.0138484,0.0106526,0.0127832,56.1,21.6,65.7,-0.646655,0.482596,10.12
38246382,-0.0170442,-0.00319579,0.00426106,54.75,21.45,66.6,-0.536484,0.798739,10.0577
38269203,0.0266316,0.00532632,-0.00958738,55.2,22.5,65.55,-0.304167,0.89454,10.1176
38281385,-0.0138484,0.0340885,0.00319579,55.2,21.45,67.35,-0.713716,0.786764,10.0242
38304203,-0.0287621,0.0117179,0.0117179,54.6,22.35,65.7,-0.752036,0.920885,10.132
38317379,-0.0319579,-0.00745685,-0.00319579,55.2,22.5,66.6,-0.512534,0.88017,10.0625
38330376,-0.0479369,0.0191748,0.0170442,54.9,22.35,66.15,-1.00351,0.494572,9.8733
38353209,-0.0213053,-0.00852211,-0.015979,54.3,22.35,66.75,-0.469424,0.846639,10.0769
38366378,0.0181095,0.00532632,0.00852211,53.85,22.35,66.45,-0.56283,0.645458,10.0194
38389203,-0.0319579,0.0543285,0.0127832,53.25,22.35,66.15,-0.589175,0.714913,10.3116
38401380,-0.00319579,0.0170442,0.0149137,55.2,22.5,66.3,-0.584385,0.698148,9.88767
38424203,-0.0351537,0.00639159,0.0117179,54.75,22.95,67.05,-0.792751,0.803529,10.1032
38436376,0.0170442,0.02024,0.00852211,54.3,21.9,66.15,-0.519719,0.626298,10.0793
38459203,0.0223706,0.00319579,0.0181095,54.6,22.65,66.15,-0.462239,0.592767,10.029
38472375,0.0340885,-0.0117179,0.00852211,53.4,22.2,66.6,-0.481399,0.523312,10.0984
38495203,0.0330232,-0.00106526,0.0213053,54.45,22.95,66,-0.622705,0.25028,9.93318
38507376,0.0298274,0.0287621,0.0223706,54.75,23.25,66.3,-0.584385,0.911305,10.1727
38531223,0.0543285,0.0788296,0.0127832,55.35,22.35,66.45,-0.689766,0.863405,10.0553
38544377,0.0181095,0.0873517,0.0127832,54.75,22.5,66,-0.579595,0.547262,10.2661
38557376,0.0607201,0.052198,0.0223706,54.6,23.85,66.15,-0.529299,0.717308,10.0936
38580249,0.0138484,0.0255663,0.0181095,55.2,23.7,66.3,-0.57241,0.765209,10.0457
38593377,0.0703075,-0.00639159,0.0340885,55.35,24.15,66.15,-0.63947,0.547262,10.0194
38616203,0.1012,-0.0383495,0.056459,53.85,23.85,67.2,-0.538879,0.446671,10.0913
38628375,0.11931,-0.0852212,0.0649811,54.75,23.25,67.35,-0.646655,0.858615,9.9715
38652210,0.0713727,-0.0873517,0.056459,54.45,23.25,66.3,-0.56762,0.882565,10.1248
38664378,0.0948085,-0.092678,0.0490022,54.45,23.7,67.05,-0.510139,0.963995,10.2014
38687203,0.0884169,-0.0777643,0.0447411,55.65,24.6,66.75,-0.282612,0.96639,10.1487
38699413,0.149137,-0.04048,0.0500674,54.75,24.3,66,-0.476609,0.839454,10.1296
38722203,0.162985,-0.0458064,0.0191748,54.75,24,66.6,-0.646655,0.935255,10.029
38735376,0.184291,-0.0223706,0.0458064,54.75,24.75,66.6,-0.275427,0.88975,10.1703
38758239,0.237554,-0.0543285,0.00106526,54.45,23.7,66,-0.819097,0.693358,9.91641
38771377,0.238619,0.00958738,0.0266316,54.3,25.35,66.75,-0.174836,0.93765,10.096
38784376,0.312122,0.0468716,-0.00852211,54.3,23.4,65.7,-0.234712,1.22984,9.98347
38807203,0.347276,0.0958738,-0.015979,54.6,24.15,66.15,-0.342488,1.03345,9.8733
38820412,0.438889,0.147006,-0.0170442,54.75,24.3,66.3,-0.349673,1.34001,10.1966
38843203,0.476173,0.171508,-0.00213053,55.65,25.65,66.75,-0.368833,1.17715,9.85893
38855377,0.510262,0.2024,-0.00319579,54.75,27.75,66.3,-0.62989,1.17476,9.94515
38878242,0.572047,0.2024,0.0149137,55.2,26.55,65.55,-0.55804,1.52204,9.91402
38891379,0.600809,0.194943,0.00852211,55.2,27.75,65.25,-0.673001,1.48132,9.94994
38914203,0.670051,0.199204,0.0234358,55.2,27,66,-0.534089,1.2011,9.97868
38926375,0.806405,0.190682,0.0596548,54.9,27.9,65.1,-0.749641,1.45258,9.68649
38949223,0.801079,0.178964,0.0809601,55.5,29.55,63.15,-0.414338,1.65376,9.85175
38962378,0.952346,0.213053,0.166181,55.35,27.9,63.6,-0.445474,1.43102,9.94276
38975377,1.09935,0.295078,0.189617,54.75,30.6,63.15,-0.895737,1.5891,10.2972
38998242,1.06739,0.304666,0.20027,55.35,32.4,63.3,-0.313748,2.74589,10.4146
39011378,1.23464,0.355798,0.257794,55.2,33.3,61.05,-0.471819,2.26449,10.9559
39034203,1.3156,0.423975,0.30147,55.8,32.85,61.8,-1.27894,2.60698,10.4768
39047375,1.27725,0.322775,0.315318,56.1,36.75,60.9,-1.67172,2.82493,10.9606
39071223,1.3433,0.135289,0.336624,55.65,37.5,59.85,-1.89446,3.2201,11.4229
39084378,1.24529,0.00319579,0.305731,54.9,39,61.2,-1.61424,2.97342,10.7882
39097377,1.22612,-0.00106526,0.329167,55.5,39.6,58.2,-0.809517,2.42496,10.999
39120252,1.29323,-0.0703075,0.335558,55.65,39.75,58.8,-0.838257,1.94595,10.4625
39133385,1.13238,-0.134223,0.336624,54.3,42.3,57.75,-0.318538,0.774789,11.2983
39156203,0.899083,-0.127832,0.502805,54.15,41.7,57.9,0.352068,-0.552052,12.0025
39169377,0.566721,-0.148072,0.533697,53.85,42.3,57.75,-1.31726,-0.128134,11.957
39192209,0.151268,-0.22051,0.352602,52.05,44.25,57.75,-2.31598,-0.619113,9.83977
39205382,0.102265,-0.198139,0.134223,51.3,44.7,59.25,-2.03577,-0.786764,10.3116
39228203,-0.147006,-0.113983,-0.0298274,48.45,44.4,58.95,-1.49928,-0.999921,9.60027
39240403,-0.472977,-0.0905475,-0.123571,49.95,44.85,61.95,-1.23823,-1.13644,10.4289
39263203,-0.62318,-0.107592,-0.13955,48.6,43.8,62.55,-0.637075,-1.03345,10.2565
39276378,-1.05568,-0.0937433,-0.120375,48.15,42.75,65.1,-0.670605,-0.741259,10.7164
39289375,-1.22399,-0.0916127,-0.107592,47.25,42.45,64.95,-1.18553,-0.429906,10.8648
39312209,-1.51587,-0.0798948,-0.155529,45.75,41.25,68.25,-1.59748,-0.0802332,9.94755
39324377,-1.63625,-0.0468716,-0.22051,47.7,38.4,70.05,-1.80824,0.233514,10.9247
39347203,-1.68418,0.00958738,-0.269512,47.1,37.2,71.7,-1.88249,0.544867,10.1296
39360402,-1.83652,0.0479369,-0.329167,45.3,34.95,73.5,-1.80584,0.88496,10.702
39383203,-1.78219,0.0980043,-0.348341,44.7,33.75,75.6,-1.60466,1.34241,11.8372
39395375,-2.11029,0.133158,-0.356864,43.35,27,77.1,-1.2981,1.39031,11.3917
39418240,-2.12201,0.129962,-0.329167,44.25,26.4,78.6,-1.40588,1.41905,11.8755
39431377,-2.11348,0.170442,-0.32384,43.5,24.15,77.7,-1.75315,1.61544,11.4013
39454203,-2.39684,0.172573,-0.409062,42.3,20.25,77.85,-2.05253,1.91721,12.1318
39466375,-2.23386,0.238619,-0.461259,41.1,14.25,78.3,-2.11959,2.07049,11.0804
39489223,-2.25836,0.247141,-0.546481,40.95,11.4,77.4,-2.31838,2.5016,10.1439
39502378,-2.01655,0.254598,-0.677508,40.65,11.55,76.95,-2.25611,3.16502,9.76313
39525203,-1.54889,0.230097,-0.730771,39.9,7.35,76.35,-1.43222,3.52188,8.90332
39537409,-1.47752,0.268447,-0.690291,39,5.25,76.2,-0.380808,3.49553,9.67931
39560204,-0.90867,0.234358,-0.56459,38.7,4.05,75,-0.124541,3.23447,10.3188
39572376,-1.2144,0.235423,-0.436758,38.55,5.25,75.15,0.193997,4.32181,14.8046
39595206,-1.45196,0.234358,-0.317449,38.25,3.45,75.9,-0.114961,3.47637,12.036
39607382,-1.50522,0.165116,-0.217314,38.55,1.95,73.5,-0.498164,2.64769,8.65663
39630203,-0.924649,0.0500674,-0.137419,37.2,-0.15,76.2,-0.529299,2.49441,8.88416
39642378,-0.953412,0.0319579,-0.0745685,37.65,0.3,75.3,-0.948428,2.20941,7.63875
39665217,-0.390952,-0.0639159,-0.0415453,38.55,0.15,74.55,-0.958008,2.116,7.79922
39678378,-0.187487,-0.112918,0.0213053,37.5,-1.95,75.15,-0.946033,1.66813,7.90699
39691375,-0.0703075,0.0639159,0.092678,37.05,-0.3,75.3,-0.584385,2.90157,14.6346
39714203,-0.671117,0.128897,0.0149137,34.95,-0.45,76.65,-1.40827,2.46807,10.3954
39726381,-0.80747,0.126766,-0.0745685,34.95,-0.9,76.95,-1.8298,1.46934,8.45306
39749203,-0.0713727,-0.0149137,-0.152333,37.2,-2.4,76.95,-1.21667,1.63939,6.95617
39761375,-0.134223,0.115049,-0.143811,36.3,-3.3,76.05,-0.570015,2.44172,6.83402
39784217,0.660464,-0.00745685,-0.181095,37.05,-2.55,77.85,-1.1065,2.78182,8.53688
39797377,0.532632,-0.0149137,-0.245011,35.55,-1.8,77.1,-1.45378,3.09317,6.46519
39820203,1.1409,-0.115049,-0.199204,35.55,-1.35,77.1,-0.627495,1.14362,11.5354
39832375,0.2024,-0.0905475,-0.194943,35.7,0.15,76.95,-0.646655,-2.65248,13.4658
39855209,0.172573,-0.167247,-0.18216,35.4,-0.15,76.2,-0.517324,-3.0788,9.70086
39868378,0.486826,-0.0351537,-0.0820254,35.7,1.95,77.25,-0.60115,-2.22138,7.08311
39891203,0.752077,0.0351537,-0.105461,34.2,1.35,77.4,-0.462239,-1.69687,11.1546
39903380,0.716923,0.0553937,-0.0479369,35.7,3,76.65,0.462239,-1.17955,8.92967
39926203,0.732902,0.00745685,0.0841559,34.8,4.8,77.85,0.462239,-1.83818,8.90811
39939376,1.11001,-0.00106526,0.262055,35.25,2.85,77.4,-0.313748,-0.511337,11.8396
39952377,0.632767,0.00639159,0.233293,35.4,6.45,76.95,-1.82261,-0.405956,11.0109
39975209,0.465521,-0.0798948,0.162985,35.4,6.75,78,-2.18905,-0.405956,11.1666
39987379,0.610397,-0.117179,0.100135,34.8,7.65,77.85,-2.02858,-0.405956,10.5559
40010203,0.476173,-0.189617,0.0596548,34.8,7.35,77.4,-1.346,-0.607138,10.0984
40023384,0.395213,-0.246076,0.0948085,34.95,9.75,78.3,-0.589175,-0.671803,10.9798
40046203,0.446346,-0.273773,0.115049,32.7,9.9,77.1,-0.981958,-0.805924,9.12845
40059377,0.592287,-0.370712,0.0958738,32.55,9.75,78,-1.37474,-0.0347278,10.7451
40082214,0.167247,-0.48363,0.116114,33.6,9.3,75.9,-0.392783,0.113763,12.0192
40095382,0.249272,-0.390952,0.110787,31.65,11.1,78.15,-1.53281,-0.300575,9.0566
40118203,0.356864,-0.381365,-0.0245011,30.9,11.4,78.15,-1.43462,-0.676593,9.3464
40130377,0.464455,-0.399474,-0.0415453,31.05,12.3,77.25,-0.665815,-0.410746,9.59069
40153217,0.496413,-0.372843,-0.0234358,31.35,11.85,77.85,0.0383203,0.614323,11.1451
40166382,0.233293,-0.275903,0.00426106,30.9,12.9,77.85,-0.421523,-0.0898132,10.2685
40179375,0.350472,-0.251402,-0.0511327,29.7,13.05,78,-1.16398,-0.468226,9.98108
40202217,0.421845,-0.232228,-0.0500674,29.7,14.55,79.05,-0.704136,-0.0299377,10.5463
40215376,0.363255,-0.185356,-0.0426106,29.7,13.8,76.65,0.100591,0.257465,11.0061
40238203,0.234358,-0.105461,0.00426106,29.7,14.55,77.7,0.435894,-0.195194,10.1775
40250375,0.312122,-0.015979,0.00319579,29.1,16.2,77.4,0.0287402,0.30297,10.5271
40273209,0.208792,0.0191748,-0.0266316,29.7,15.6,78.3,-0.313748,0.29339,10.4433
40285378,0.188552,0.0607201,-0.00532632,29.25,15.3,76.65,-0.119751,0.597557,10.8744
40308203,0.197074,0.110787,-0.00213053,29.25,16.35,77.25,-0.361648,0.750839,10.2829
40320422,0.00958738,0.0905475,-0.015979,29.7,16.35,76.65,-0.407153,0.178429,9.92599
40343204,0.250337,0.0745685,0.00319579,30.45,17.1,76.65,-0.570015,0.413141,10.1463
40355375,0.128897,0.108657,-0.02024,30.9,15.9,77.1,-0.215552,0.583187,9.94515
40378238,0.1012,0.092678,-0.00958738,30,17.55,77.25,-0.490979,0.451461,10.5655
40391377,0.123571,0.0479369,-0.00319579,29.85,16.95,77.4,-0.368833,0.549657,9.55716
40414203,0.187487,0.0436758,0.0170442,29.1,18,76.35,-0.364043,0.453856,10.0745
40426375,0.232228,0.0245011,-0.00745685,30.15,16.2,76.35,-0.189207,0.528102,10.6972
40449223,0.0255663,0.0745685,0.0106526,28.95,18.6,77.7,-0.65863,0.348475,9.9691
40462378,0.204531,0.106526,0.0106526,28.8,17.4,77.4,-0.0742456,0.609532,10.1966
40485203,-0.00213053,0.129962,0.00958738,30.15,18,76.35,-0.198787,-0.061073,9.77511
40497376,0.175769,0.147006,0.00426106,30.6,18.45,77.4,-0.411943,0.295785,10.2397
40520203,0.211988,0.183225,0.015979,31.05,18.6,76.95,-0.328118,0.480201,10.0649
40532376,0.135289,0.186421,-0.036219,29.25,19.05,77.25,0.0550855,0.96639,10.7643
40555203,0.126766,0.237554,0.0330232,30,17.85,76.65,-0.855022,0.164059,10.1918
40567380,0.0479369,0.092678,-0.0181095,31.65,17.7,76.05,-0.737666,-0.0538879,9.98347
40590203,0.02024,0.0830906,-0.00319579,29.85,18,76.05,-0.603545,0.456251,10.1104
40602376,0.0468716,0.0703075,-0.0127832,31.5,18.3,77.25,-0.989143,1.05501,10.2781
40625217,0.12144,0.0788296,0.00213053,30.6,19.2,76.05,-0.742456,0.796344,9.90923
40638376,0.0543285,0.0511327,-0.0127832,31.5,19.05,76.2,-0.708926,0.789159,10.3619
40651376,0.0777643,0.0671117,-0.0181095,31.8,18.6,76.95,-0.773591,0.717308,9.98826
40674203,-0.00745685,0.0735032,0.0117179,31.8,20.1,75.6,-0.831072,0.595162,10.2876
40686384,0.0276969,0.0308927,0.00319579,31.05,19.05,77.25,-0.874182,0.573607,10.0434
40709203,0.0255663,0.0149137,-0.00852211,31.05,18.3,76.2,-0.416733,-0.0275427,10.0026
40722377,0.00745685,0.00426106,0.0138484,32.4,18,76.35,-0.385598,0.508942,10.0984
40745217,-0.0234358,0.00852211,0.00213053,30.9,19.2,76.35,-0.323328,0.700543,10.0697
40758379,-0.0117179,-0.00426106,0.00639159,30.75,20.55,75.9,-0.668211,0.647853,10.2829
40781203,-0.0426106,-0.036219,0.00532632,32.1,18.6,76.2,-0.684976,0.652643,10.0362
40794377,-0.0138484,-0.0255663,0.00745685,30.15,19.5,77.1,-0.60115,0.731678,10.0481
40817210,0.0127832,-0.00532632,-0.00639159,30.45,19.35,76.95,-0.555645,0.619113,10.096
40830379,-0.00319579,0.00958738,0.00319579,32.1,20.1,76.65,-0.723296,0.767604,10.029
40843375,-0.00639159,0.0149137,0.00319579,30.9,19.2,77.1,-0.708926,0.652643,10.1966
40866217,0.00852211,0.0191748,-0.00319579,31.35,18.75,75.75,-0.579595,0.628693,10.1415
40879377,-0.00958738,0.0181095,0.0106526,30.6,19.5,76.05,-0.502954,0.477806,10.0673
40902203,0.00532632,0.0181095,0.00639159,30.6,19.95,75.3,-0.474214,0.645458,10.1679
40914375,-0.0149137,0,0.00213053,30.9,19.95,76.35,-0.570015,0.623903,10.0481
40937210,-0.00106526,0.00958738,0.00745685,30.75,18.6,75.6,-0.56283,0.698148,10.1631
40949377,-0.0138484,0.015979,0.00852211,32.4,19.2,75.75,-0.637075,0.635878,9.99305
40972203,-0.0149137,0.02024,0.00426106,30.75,19.8,75.9,-0.498164,0.693358,10.0553
40984380,0.0170442,0.04048,0.0106526,30.6,19.5,76.05,-0.651445,0.631088,9.98347
41007203,0.00532632,0.0458064,0.00745685,31.95,19.5,76.05,-0.811912,0.643063,10.1056
41019376,0.0245011,0.0330232,-0.00213053,31.5,19.05,75.9,-0.828677,0.628693,10.0002
41042217,-0.00532632,0.0511327,0.00106526,31.65,19.2,75,-0.704136,0.587977,10.0026
41055376,0.0298274,0.0585895,0.00319579,31.8,19.8,75.6,-0.60115,0.614323,10.1224
41078203,0.00958738,0.036219,-0.00639159,31.5,20.1,75.9,-0.550855,0.643063,9.96431
41090376,0.0372843,-0.00426106,0.00532632,31.5,19.35,76.65,-0.565225,0.628693,10.1631
41113209,0.0106526,-0.02024,0.0149137,30.75,19.05,76.65,-0.548459,0.93286,9.98108
41126377,0.0639159,-0.0308927,0.02024,30.75,19.35,75.6,-0.692161,0.803529,10.2876
41139377,0.0383495,0.00213053,0.0149137,30.9,20.7,76.05,-0.59636,0.683778,9.88049
41162217,0.0607201,0.0213053,0.0287621,30.9,18.75,77.85,-0.670605,0.494572,10.2613
41175379,0.0628506,0.0127832,0.0213053,31.05,21.15,74.1,-0.65863,0.767604,9.94994
41198203,0.0255663,0.00213053,0.0191748,31.35,18.45,76.05,-0.673001,0.88496,10.2182
41210377,0.056459,-0.00532632,0.0298274,29.85,20.7,75.3,-0.56283,0.669408,9.97868
41233209,0.0468716,0.00319579,0.0255663,31.05,19.05,76.2,-0.684976,0.633483,10.0841
41246382,0.0426106,-0.00958738,0.0298274,31.05,20.85,74.85,-0.507744,0.858615,10.0913
41269203,0.0692422,-0.0319579,0.0245011,30.9,19.95,75.3,-0.522114,0.779579,9.99066
41281382,0.0479369,-0.0127832,0.0340885,31.35,20.25,74.7,-0.823887,0.820294,9.98587
41304203,0.052198,-0.0490022,0.0234358,31.65,20.25,75,-0.914898,0.786764,10.1679
41317378,0.0426106,-0.0298274,0.0308927,31.35,20.25,75.75,-0.65863,0.92328,10.1248
41340249,0.036219,-0.0287621,0.0223706,29.7,20.1,75.6,-0.467029,0.91849,10.223
41353378,0.04048,-0.0191748,0.0436758,31.35,20.7,76.05,-0.613125,0.736469,9.99305
41366375,0.0692422,-0.0330232,0.0436758,31.95,21.45,73.65,-0.531694,0.743654,10.0505
41389203,0.092678,-0.0287621,0.036219,31.8,20.1,75.9,-0.728086,0.815504,10.0505
41401399,0.103331,-0.0276969,0.0383495,29.55,20.7,77.1,-0.292192,0.87538,10.1344
41424203,0.134223,-0.0117179,0.0351537,30.75,21.9,75.6,-0.328118,0.93765,10.0673
41437375,0.123571,0.00532632,0.0340885,32.1,21.15,76.95,-0.524509,0.963995,10.0889
41460249,0.14168,0.00958738,0.0234358,29.25,21.15,75.9,-0.716111,0.769999,10.0625
41473377,0.162985,0.00639159,0.015979,30.6,22.2,75.75,-0.524509,0.963995,9.98108
41496203,0.193878,0.0170442,0.0223706,31.05,21.9,77.7,-0.455054,0.978366,10.0697
41509375,0.229032,0.0383495,0.0181095,30.15,22.2,76.05,-0.447869,0.906515,10.0098
41532209,0.230097,0.072438,0.015979,31.8,21.6,75.6,-0.64426,1.0574,10.0146
41545378,0.268447,0.0905475,0.0106526,31.35,21.45,75.3,-0.524509,0.949625,10.0386
41558377,0.271642,0.0852212,0.00319579,31.35,22.5,75.3,-0.5772,1.18194,9.94515
41581217,0.305731,0.105461,0.00213053,31.35,23.7,75.75,-0.699346,1.28253,9.95952
41594378,0.365386,0.134223,0.00319579,30.6,23.25,74.7,-0.613125,1.14841,9.94036
41617203,0.400539,0.165116,0.00319579,30.6,24,75.3,-0.673001,1.12207,9.90683
41629377,0.478304,0.193878,-0.00213053,31.5,24.6,74.1,-0.764011,1.08375,9.9212
41652203,0.550742,0.205596,-0.00852211,30.9,26.25,73.95,-0.58678,0.973575,9.81822
41665378,0.691357,0.209857,0.00106526,32.4,24.3,74.25,-1.07776,1.24182,9.95952
41688203,0.6839,0.229032,-0.0106526,31.05,26.4,73.8,-0.560435,0.769999,9.66254
41700431,0.92891,0.187487,0.0713727,31.95,27.3,73.2,-0.809517,1.81423,10.5056
41723204,0.817058,0.24288,0.092678,32.1,26.7,73.8,-0.725691,1.85973,9.35358
41735375,1.0365,0.170442,0.12144,30.75,28.2,72.75,-0.6251,2.24773,10.8816
41758239,1.00135,0.192813,0.165116,32.55,28.95,73.05,-1.13524,1.78549,10.6182
41771378,0.994957,0.209857,0.267381,32.1,30.9,72,-1.33163,2.2621,11.1019
41794203,0.978978,0.211988,0.268447,32.7,31.35,71.55,-0.495769,2.60458,11.5019
41806375,0.984304,0.0330232,0.233293,33.3,34.2,70.95,-1.74836,2.89917,11.2097
41830223,0.806405,-0.185356,0.18216,32.55,34.95,69.9,-1.56155,1.71364,10.8002
41843378,0.705205,-0.291882,0.164051,31.35,37.35,70.05,-0.677791,0.405956,11.1019
41856375,0.514523,-0.253533,0.243946,30.45,37.2,70.65,-0.256267,-1.52922,12.1246
41879250,0.398409,-0.187487,0.418649,31.35,37.35,69.75,-0.146096,-1.63221,10.0601
41892378,-0.13955,-0.288687,0.486826,31.95,37.35,69.75,-0.378413,-1.31606,11.2528
41915203,0.00745685,-0.190682,0.518784,30.15,38.4,71.1,-0.814307,-2.16151,12.0336
41927377,-0.509196,-0.2024,0.448476,28.2,39.3,70.65,-0.816702,-2.2621,9.18593
41951223,-0.661529,-0.151268,0.361125,28.05,38.1,72.15,-1.27176,-2.10163,10.7786
41964382,-0.545415,-0.117179,0.224771,25.95,39.15,72.15,-1.47773,-1.62742,9.82061
41977375,-0.965129,-0.0703075,0.0596548,25.95,37.35,73.65,-1.38432,-1.41186,10.2829
42000252,-0.831971,-0.0372843,-0.0692422,23.85,37.65,76.05,-1.26457,-1.03585,11.2959
42013376,-1.11107,0.00532632,-0.167247,24.9,37.35,76.35,-1.04902,-0.580792,11.1475
42036203,-1.47433,0.0351537,-0.241815,24.3,35.25,77.7,-1.09692,-0.130529,12.7713
42048375,-1.43278,0.0937433,-0.284426,23.55,34.95,80.7,-1.08255,0.0850232,11.1283
42071203,-1.65436,0.0958738,-0.331297,23.25,33,83.85,-0.744851,0.530497,10.9582
42083376,-1.58405,0.0905475,-0.290817,22.8,31.05,85.8,-0.122146,0.640668,11.1403
42106203,-1.56807,0.0756338,-0.184291,21.45,28.65,88.05,-0.328118,1.0119,10.132
42118426,-1.53824,0.0692422,-0.127832,20.55,24.3,91.35,-0.617915,1.54599,10.884
42141203,-1.44876,0.1012,-0.129962,20.25,20.7,92.85,-0.534089,1.91242,10.611
42153376,-1.39443,0.134223,-0.0841559,18.6,20.1,94.8,-0.613125,2.42975,12.5533
42176206,-1.59683,0.100135,-0.103331,18.3,16.35,95.85,-0.780776,2.29323,10.417
42188385,-1.50628,0.0841559,-0.127832,17.55,10.05,97.5,-0.589175,2.02499,9.40388
42211203,-1.012,0.036219,-0.158724,17.7,7.65,98.4,-0.792751,2.01062,9.38711
42223378,-1.20694,0.0617853,-0.191748,18.45,5.1,99.15,-0.55325,1.6825,9.42544
42246217,-0.828776,0.0223706,-0.157659,18.6,3,100.65,-0.289797,0.999921,8.38121
42259378,-0.558199,0.0447411,-0.0596548,17.85,-2.4,100.35,-0.124541,0.540077,7.19328
42282203,-0.241815,0.14168,0.0575243,17.4,-3.3,100.8,-0.414338,1.70166,15.0226
42294378,-0.725445,0.0937433,0.0308927,18.15,-5.55,101.25,-1.20469,1.36157,11.2169
42317209,-1.38271,0.1012,-0.0692422,17.85,-6.75,101.7,-1.18074,1.24182,12.2108
42329379,-0.859668,0.106526,-0.0990696,18.75,-11.4,101.55,-1.02507,0.90891,9.10929
42352203,-1.05887,0.0511327,-0.0905475,19.2,-13.95,100.8,-0.165256,0.772394,8.07704
42364378,-0.52198,0.00745685,0.0170442,19.05,-15.6,102.75,0.225132,0.872985,10.6517
42387203,-0.759533,-0.00745685,0.135289,20.25,-18,99.75,-0.0886157,0.576002,8.11536
42399377,-0.22051,-0.0862864,0.22264,21.45,-21.9,100.95,-0.416733,0.506547,10.1918
42422242,-0.513457,0.0575243,0.271642,21.9,-22.35,100.65,-0.529299,1.60107,12.6348
42435379,-0.929976,0.194943,0.247141,23.1,-23.7,100.2,-1.29571,1.01669,10.9367
42448372,-0.698813,0.0830906,0.143811,23.1,-25.05,99.45,-1.69567,0.734074,8.12733
42471203,-0.467651,0.0426106,0.0649811,24,-29.7,99.3,-1.36756,0.722098,8.87698
42483372,-0.379234,0.0841559,0.0319579,24.75,-31.2,98.25,-0.895737,0.87538,8.54886
42506203,-0.266316,0.116114,0.00745685,23.25,-31.95,98.25,-1.14482,0.834664,7.82317
42518373,0.173638,0.113983,-0.00745685,24.3,-31.95,97.5,-0.694556,1.54838,9.2027
42541249,-0.0948085,0.225836,0.00958738,24.45,-33.6,97.35,-0.723296,1.637,10.8481
42554383,-0.168312,0.252468,0.0500674,24.9,-33.3,97.65,-0.835862,1.41426,10.4409
42577203,0.015979,0.270577,0.0660464,25.2,-32.85,97.05,-1.31008,1.41665,6.72864
42589376,0.339819,0.125701,-0.0660464,25.35,-35.25,97.95,-2.4525,1.98906,9.18833
42612209,0.52411,0.122505,-0.20027,25.35,-35.7,97.95,-1.44899,1.60826,6.75499
42624377,0.818123,0.196009,-0.155529,26.7,-34.05,97.35,-0.924478,-0.817899,12.1845
42647203,0.279099,0.0671117,-0.177899,25.2,-34.8,99.15,-0.926873,-2.8393,9.67691
42659410,0.213053,-0.00852211,-0.0820254,26.1,-33,100.35,-0.395178,-3.36381,11.2983
42682203,0.556068,0.0383495,-0.0340885,26.25,-33.3,100.5,-0.474214,-2.51357,6.64721
42694375,0.541154,0.0745685,-0.0127832,24.75,-32.7,99.6,-0.0455054,-1.62742,10.4768
42717221,0.78723,0.056459,0.072438,25.35,-30.45,99.3,-0.431104,-1.69927,9.34879
42730378,0.738228,-0.157659,0.170442,24.9,-31.8,100.8,-0.00479004,-1.28732,9.32963
42753203,0.904409,-0.267381,0.271642,23.85,-29.55,102.3,-0.308958,-1.21308,10.2206
42765375,1.00135,-0.338754,0.311057,24.15,-28.5,102.9,-1.52563,-0.796344,10.4433
42788217,0.703074,-0.26099,0.268447,24.45,-27,102.6,-1.82261,-0.0993933,11.8468
42800377,0.171508,-0.151268,0.112918,23.55,-27.45,104.1,-2.23216,0.655038,15.0418
42823203,0.42291,-0.0820254,0.0426106,23.1,-25.8,104.7,-1.38432,-0.626298,8.01237
42835375,0.178964,-0.0798948,0.0234358,23.85,-24.75,102.9,-0.804727,-0.755629,11.2241
