timestamp,q0,q1,q2,q3,accel_x,accel_y,accel_z
11798113,0.996128,-0.048158,0.0236357,0.0696475,-0.105381,-0.728086,9.75131
11810104,0.996126,-0.0481756,0.0236179,0.0696661,-0.196392,-0.785566,9.73455
11831921,0.996125,-0.0481654,0.0236605,0.0696737,-0.174836,-0.711321,9.75371
11844102,0.996122,-0.0482154,0.0236752,0.0696896,-0.131726,-0.799937,9.72736
11866921,0.996114,-0.0482617,0.0237105,0.0697543,-0.134121,-0.737666,9.78484
11879107,0.9961,-0.0482987,0.0237758,0.0699016,-0.213157,-0.756826,9.73934
11900921,0.996094,-0.0483409,0.0237658,0.0699704,-0.143701,-0.775986,9.75131
11913131,0.996088,-0.0483472,0.0237409,0.0700583,-0.153281,-0.737666,9.74652
11934921,0.99608,-0.0483573,0.0237487,0.0701599,-0.0981958,-0.787961,9.77047
11947113,0.996084,-0.0483062,0.0237299,0.0701488,-0.0958008,-0.744851,9.80161
11968921,0.996083,-0.0483235,0.0237435,0.0701336,-0.107776,-0.742456,9.79442
11981111,0.996075,-0.0483955,0.0238366,0.0701799,-0.119751,-0.742456,9.73455
12002922,0.996076,-0.0483554,0.0238352,0.0701886,-0.112566,-0.783171,9.77526
12024921,0.996078,-0.0483306,0.0238111,0.0701868,-0.193997,-0.821492,9.77287
12037112,0.996076,-0.0483519,0.0237962,0.070209,-0.158071,-0.768801,9.76808
12058922,0.996073,-0.048371,0.0238259,0.0702182,-0.0479004,-0.740061,9.73455
12071111,0.996069,-0.0484307,0.0238277,0.0702337,-0.114961,-0.773591,9.79442
12092922,0.996063,-0.0484678,0.0238814,0.0702726,-0.179626,-0.783171,9.77287
12105111,0.996058,-0.0484931,0.0239015,0.0703237,-0.184417,-0.780776,9.7106
12126921,0.996053,-0.0485366,0.0238878,0.070376,-0.119751,-0.744851,9.75371
12139111,0.996047,-0.0486059,0.0239404,0.0703953,-0.162861,-0.787961,9.72257
12160946,0.996044,-0.0486138,0.0239925,0.0704055,-0.124541,-0.720901,9.73694
12173111,0.996039,-0.0486215,0.0240415,0.0704521,-0.170046,-0.713716,9.73215
12194922,0.996033,-0.0486635,0.0241159,0.0704922,-0.167651,-0.744851,9.77047
12216946,0.99603,-0.0487066,0.0240873,0.0705154,-0.148491,-0.747246,9.74652
12229111,0.996033,-0.0486799,0.0240925,0.0704782,-0.196392,-0.771196,9.81837
12250922,0.996035,-0.0487188,0.024064,0.0704342,-0.174836,-0.740061,9.76808
12263112,0.996037,-0.0487214,0.0240407,0.0704225,-0.136516,-0.737666,9.7082
12285921,0.996035,-0.0487221,0.0240511,0.0704383,-0.0934058,-0.756826,9.76089
12298113,0.996033,-0.0487681,0.0240836,0.0704327,-0.141306,-0.735271,9.76329
12319921,0.996029,-0.0487679,0.0241066,0.0704807,-0.167651,-0.687371,9.70102
12332141,0.996024,-0.0487763,0.0241264,0.0705324,-0.196392,-0.740061,9.72018
12353922,0.996026,-0.048791,0.0240904,0.0705128,-0.0958008,-0.754431,9.77287
12366111,0.996019,-0.0488397,0.0241314,0.0705531,-0.177231,-0.756826,9.78245
12387921,0.996018,-0.0487939,0.0241905,0.0705826,-0.0910107,-0.742456,9.78484
12400108,0.996023,-0.0487847,0.0241628,0.0705364,-0.136516,-0.716111,9.72976
12421922,0.996015,-0.0488048,0.0242185,0.0706104,-0.208367,-0.785566,9.76568
12443921,0.996011,-0.0487876,0.0242549,0.0706593,-0.105381,-0.694556,9.804
12456112,0.996002,-0.0488478,0.0243091,0.0707328,-0.124541,-0.749641,9.75371
12477922,0.996001,-0.0488771,0.0243512,0.0707127,-0.162861,-0.708926,9.73694
12490111,0.995999,-0.0488911,0.0243969,0.0707202,-0.131726,-0.771196,9.73455
12511952,0.995999,-0.0489116,0.0244198,0.0706937,-0.162861,-0.768801,9.77287
12524112,0.995999,-0.0488995,0.0243549,0.0707185,-0.129331,-0.771196,9.72976
12545922,0.995991,-0.048923,0.0243187,0.0708385,-0.126936,-0.737666,9.74892
12558112,0.995983,-0.0489494,0.0243932,0.070898,-0.0790356,-0.764011,9.79203
12579922,0.995975,-0.0489715,0.0244344,0.070978,-0.143701,-0.749641,9.73934
12592111,0.995971,-0.0489721,0.0244166,0.0710483,-0.167651,-0.802332,9.72018
12613921,0.995966,-0.0489944,0.0243372,0.0711298,-0.141306,-0.744851,9.70341
12635963,0.995955,-0.0490402,0.0243456,0.0712513,-0.131726,-0.740061,9.75371
12648111,0.995951,-0.0490762,0.024403,0.0712583,-0.0646655,-0.742456,9.79921
12669922,0.995954,-0.0490796,0.0243888,0.0712128,-0.114961,-0.735271,9.72257
12682111,0.99594,-0.0491483,0.0244325,0.0713458,-0.225132,-0.749641,9.72976
12704946,0.995927,-0.0492113,0.0245246,0.071461,-0.150886,-0.771196,9.71778
12717111,0.995929,-0.0492078,0.0245093,0.0714311,-0.158071,-0.799937,9.73215
12738922,0.995924,-0.0492243,0.0245023,0.0715043,-0.167651,-0.706531,9.7561
12751115,0.995918,-0.0492463,0.0245837,0.0715367,-0.150886,-0.744851,9.72736
12773922,0.995903,-0.0493552,0.0245982,0.071669,-0.0910107,-0.737666,9.77287
12786111,0.995896,-0.0493847,0.02466,0.0717272,-0.201182,-0.699346,9.7585
12807921,0.995887,-0.0493851,0.0246645,0.0718398,-0.186812,-0.759221,9.74413
12820108,0.995881,-0.049407,0.0246509,0.0719153,-0.143701,-0.783171,9.73455
12841922,0.995874,-0.0494589,0.0246118,0.0719974,-0.122146,-0.807122,9.77526
12854111,0.995867,-0.0494803,0.0245927,0.0720749,-0.117356,-0.740061,9.78245
12875946,0.995863,-0.0495247,0.0246335,0.0720886,-0.153281,-0.780776,9.73934
12897921,0.995859,-0.0495389,0.0247412,0.0720974,-0.184417,-0.759221,9.78484
12910113,0.995856,-0.0495357,0.0247575,0.0721417,-0.107776,-0.740061,9.77047
12932974,0.995855,-0.0495508,0.02472,0.072152,-0.162861,-0.764011,9.76329
12945111,0.995854,-0.0495947,0.0247054,0.0721469,-0.196392,-0.713716,9.78005
12966922,0.995849,-0.0496641,0.0247718,0.0721384,-0.134121,-0.720901,9.73455
12979112,0.995843,-0.0497046,0.0248586,0.0721684,-0.186812,-0.716111,9.81119
13000946,0.995839,-0.0496969,0.0249198,0.0722087,-0.172441,-0.764011,9.7561
13013111,0.995838,-0.0496839,0.0248645,0.0722502,-0.153281,-0.775986,9.76568
13034922,0.995833,-0.049701,0.0248404,0.0723185,-0.153281,-0.713716,9.75131
13047111,0.995826,-0.0496942,0.0249002,0.0723956,-0.102986,-0.704136,9.78484
13068921,0.995827,-0.0497455,0.0248637,0.0723529,-0.143701,-0.809517,9.79442
13081111,0.995827,-0.0497461,0.0248515,0.0723641,-0.191602,-0.773591,9.70102
13102921,0.995821,-0.0497869,0.0248392,0.0724234,-0.100591,-0.749641,9.72497
13115145,0.995821,-0.0498312,0.0248346,0.0723898,-0.0790356,-0.735271,9.79921
13136921,0.995817,-0.0498313,0.0248346,0.0724528,-0.193997,-0.780776,9.74652
13158922,0.995814,-0.0498152,0.0248222,0.0725013,-0.198787,-0.740061,9.79442
13171115,0.995802,-0.0498942,0.0248383,0.0726086,-0.155676,-0.730481,9.78245
13193922,0.995801,-0.0498783,0.0248566,0.0726272,-0.0598755,-0.775986,9.73215
13206111,0.995784,-0.0500102,0.0250723,0.0726999,-0.119751,-0.711321,9.78724
13227921,0.995785,-0.0500648,0.0249634,0.0726792,-0.105381,-0.840652,9.62438
13240108,0.995789,-0.0499929,0.0248215,0.07272,-0.332908,-0.708926,9.69862
13261922,0.995771,-0.0501542,0.0252042,0.0727303,-0.172441,-0.680186,9.92854
13274111,0.995761,-0.0502532,0.0249782,0.072877,0.0479004,-0.890947,9.72976
13295946,0.99576,-0.0502993,0.0249038,0.0728776,-0.299377,-0.816702,9.55732
13308111,0.995767,-0.0500759,0.0248671,0.0729476,-0.419128,-0.792751,9.76808
13329922,0.995778,-0.0498947,0.0249149,0.0729115,-0.0910107,-0.673001,9.99082
13342112,0.99579,-0.050147,0.0246684,0.0726588,0.179626,-0.725691,9.81598
13364946,0.995785,-0.0503016,0.0247019,0.0726116,-0.366438,-0.888552,9.59564
13377111,0.995772,-0.0502619,0.0248804,0.0727471,-0.0191602,-0.711321,9.65791
13398922,0.995777,-0.0501891,0.0248685,0.0727316,0.0910107,-0.716111,9.82316
13420946,0.995765,-0.0503137,0.0248612,0.0728218,-0.373623,-0.617915,9.8543
13433111,0.995731,-0.0506476,0.0252476,0.0729259,-0.390388,-0.814307,9.74173
13454922,0.995737,-0.0506282,0.0250849,0.0729045,-0.203577,-0.907712,9.57648
13467112,0.995763,-0.0502965,0.0247543,0.0728952,-0.0455054,-0.589175,9.93334
13488921,0.995745,-0.050677,0.0248459,0.0728456,-0.138911,-0.775986,9.95968
13501113,0.995725,-0.0510759,0.0250669,0.0727688,-0.177231,-0.890947,9.40643
13522921,0.995766,-0.0504909,0.0248761,0.072676,-0.122146,-0.749641,9.65551
13535111,0.995781,-0.050454,0.024868,0.0725004,-0.380808,-0.684976,10.0555
13556922,0.99575,-0.0511529,0.0252564,0.0722949,-0.253872,-0.747246,9.68904
13569111,0.995772,-0.0510209,0.0251291,0.0721313,0.0263452,-0.974773,9.49265
13590923,0.99581,-0.0505581,0.0248109,0.0720418,-0.0574805,-0.720901,9.84472
13612921,0.99579,-0.0508486,0.0250642,0.0720273,-0.0958008,-0.675396,9.89501
13625111,0.995769,-0.0510227,0.0251178,0.0721771,0.0862207,-0.847837,9.59803
13646921,0.995784,-0.0507093,0.0248779,0.072283,-0.191602,-0.833467,9.7561
13659111,0.99577,-0.0508143,0.0250657,0.0723255,-0.263452,-0.747246,9.8519
13680922,0.995765,-0.0509465,0.0252237,0.0722525,-0.316143,-0.740061,9.72736
13693111,0.995777,-0.0509066,0.0251527,0.0721357,-0.158071,-0.804727,9.68186
13714946,0.995781,-0.0509139,0.0250851,0.072103,-0.0526904,-0.713716,9.73215
13727111,0.995777,-0.0508528,0.0251057,0.0721994,-0.112566,-0.759221,9.79203
13748922,0.995773,-0.0507275,0.0250361,0.0723648,-0.0790356,-0.802332,9.74413
13761112,0.995776,-0.0506365,0.0249038,0.0724335,-0.102986,-0.768801,9.804
13783948,0.995773,-0.0505559,0.0249226,0.0725196,-0.182021,-0.840652,9.72497
13796111,0.995775,-0.0504554,0.0249643,0.0725412,-0.160466,-0.728086,9.78724
13817922,0.995769,-0.0505385,0.0251295,0.0725121,-0.148491,-0.771196,9.82077
13840946,0.995776,-0.0504551,0.0250837,0.0724898,-0.100591,-0.747246,9.73455
13853111,0.99577,-0.0503793,0.0251628,0.0726034,-0.170046,-0.747246,9.79203
13874922,0.995759,-0.0505222,0.0253435,0.0725866,-0.0287402,-0.744851,9.72976
13887112,0.995759,-0.0504214,0.0253554,0.0726517,-0.153281,-0.773591,9.67707
13908921,0.995766,-0.0502971,0.0252664,0.0726803,-0.205972,-0.704136,9.83274
13921113,0.995754,-0.0504612,0.025308,0.0727139,-0.232317,-0.737666,9.77047
13942921,0.995752,-0.0504537,0.025368,0.0727304,-0.179626,-0.718506,9.67467
13955111,0.995755,-0.0503784,0.025398,0.0727239,-0.0431104,-0.730481,9.77287
13976922,0.995753,-0.0504547,0.0253918,0.0726982,-0.215552,-0.754431,9.79442
13989111,0.99574,-0.0505578,0.0255062,0.0727643,-0.165256,-0.787961,9.63875
14010922,0.995741,-0.05048,0.0254042,0.0728452,-0.0694556,-0.775986,9.76568
14023111,0.995734,-0.0505111,0.0253568,0.0729307,-0.273032,-0.730481,9.79203
14044921,0.995726,-0.0505447,0.0254154,0.0729968,-0.155676,-0.737666,9.71778
14066921,0.995731,-0.0504981,0.0253777,0.0729765,-0.143701,-0.752036,9.72257
14079111,0.995725,-0.0505253,0.0254145,0.0730246,-0.165256,-0.754431,9.79921
14100922,0.995722,-0.0505937,0.0254432,0.073007,-0.0694556,-0.790356,9.78245
14113111,0.995721,-0.0505677,0.0254103,0.0730506,-0.184417,-0.759221,9.73694
14134972,0.995721,-0.0505303,0.0254096,0.0730743,-0.138911,-0.799937,9.79203
14147112,0.995715,-0.0505326,0.0254568,0.073146,-0.0862207,-0.730481,9.77047
14168922,0.995711,-0.0505861,0.0255533,0.073127,-0.114961,-0.744851,9.79442
14181112,0.99571,-0.0505701,0.0255752,0.0731392,-0.179626,-0.785566,9.67467
14203948,0.995713,-0.0505615,0.0255259,0.0731289,-0.141306,-0.716111,9.7082
14216111,0.995708,-0.050617,0.0255291,0.0731516,-0.0742456,-0.783171,9.77047
14237922,0.995709,-0.050634,0.0255312,0.0731316,-0.0934058,-0.823887,9.72018
14250113,0.995711,-0.0505475,0.0254995,0.0731742,-0.179626,-0.730481,9.7561
14272921,0.995706,-0.0505831,0.0255217,0.0732141,-0.105381,-0.771196,9.73934
14285113,0.995696,-0.050597,0.0255659,0.0733192,-0.0838257,-0.783171,9.72497
14306921,0.995691,-0.0505363,0.0255552,0.0734308,-0.165256,-0.783171,9.76089
14319113,0.995682,-0.0505663,0.0255841,0.0735258,-0.191602,-0.747246,9.82077
14340922,0.995672,-0.0506141,0.0256569,0.073603,-0.184417,-0.723296,9.78245
14362921,0.995673,-0.0506096,0.0255982,0.073617,-0.162861,-0.737666,9.76089
14375113,0.995681,-0.0506072,0.0255551,0.073519,-0.136516,-0.747246,9.75131
14396922,0.995679,-0.0506694,0.0255428,0.0735143,-0.182021,-0.780776,9.76568
14409111,0.995671,-0.0507564,0.0256004,0.0735366,-0.131726,-0.823887,9.72497
14430922,0.995672,-0.0507241,0.0255279,0.0735763,-0.0311353,-0.787961,9.71539
14443111,0.995669,-0.0506328,0.0254847,0.0736941,-0.150886,-0.764011,9.71539
14464921,0.995663,-0.050681,0.0255014,0.0737359,-0.215552,-0.711321,9.81119
14477111,0.995654,-0.0507487,0.0255744,0.0737782,-0.203577,-0.766406,9.72736
14498946,0.995659,-0.05075,0.0255177,0.0737361,-0.205972,-0.775986,9.73215
14511111,0.99566,-0.0507375,0.0254704,0.0737425,-0.170046,-0.797542,9.82077
14532922,0.995652,-0.0507775,0.025391,0.0738476,-0.122146,-0.833467,9.77287
14554946,0.99564,-0.0508116,0.0254794,0.0739606,-0.0670606,-0.785566,9.72257
14567111,0.995637,-0.0507841,0.0255123,0.0740063,-0.0910107,-0.742456,9.82316
14588922,0.995634,-0.0507867,0.0255366,0.0740397,-0.220342,-0.742456,9.78484
14601112,0.995627,-0.0508321,0.0255579,0.0740941,-0.210762,-0.725691,9.74173
14623948,0.995624,-0.0508744,0.0255311,0.0741159,-0.119751,-0.768801,9.74652
14636111,0.995619,-0.0509691,0.0255334,0.0741214,-0.0455054,-0.752036,9.8064
14657922,0.995614,-0.051003,0.0255446,0.074154,-0.0934058,-0.771196,9.69623
14670113,0.995616,-0.0509553,0.0254804,0.0741778,-0.158071,-0.816702,9.76329
14692921,0.995602,-0.0511003,0.0255758,0.0742352,-0.239502,-0.742456,9.75371
14705113,0.995599,-0.0511112,0.025637,0.0742516,-0.174836,-0.819097,9.72976
14726921,0.995599,-0.0510803,0.0255925,0.0742853,-0.174836,-0.677791,9.78484
14739113,0.99559,-0.051175,0.0256345,0.0743262,-0.110171,-0.732876,9.75371
14760922,0.995591,-0.0511701,0.0256615,0.0743019,-0.0790356,-0.759221,9.74892
14773111,0.995593,-0.0511918,0.0255905,0.0742867,-0.0934058,-0.802332,9.75371
14794946,0.995589,-0.0512266,0.0255428,0.0743407,-0.0646655,-0.764011,9.70341
14816921,0.995588,-0.0512085,0.0255467,0.0743623,-0.126936,-0.768801,9.81358
14829113,0.995586,-0.0512486,0.0255334,0.0743704,-0.198787,-0.730481,9.71778
14851953,0.995583,-0.0513018,0.0255459,0.0743592,-0.160466,-0.780776,9.71778
14864111,0.995586,-0.0513197,0.0255761,0.0743071,-0.153281,-0.687371,9.76568
14885922,0.995579,-0.0514086,0.0255722,0.0743326,-0.0646655,-0.775986,9.78245
14898111,0.995566,-0.0515074,0.0255173,0.074458,-0.153281,-0.787961,9.73934
14919946,0.995562,-0.0513061,0.0254529,0.0746717,-0.0958008,-0.754431,9.78005
14932111,0.995558,-0.0513111,0.0254067,0.0747403,-0.0742456,-0.761616,9.82077
14953922,0.995543,-0.0514319,0.0254391,0.0748408,-0.253872,-0.732876,9.72736
14966112,0.995539,-0.0514466,0.025527,0.0748615,-0.0886157,-0.804727,9.72976
14987921,0.995548,-0.0513853,0.0254251,0.0748092,-0.0215552,-0.716111,9.80161
15000113,0.995551,-0.0514416,0.0254183,0.0747445,-0.234712,-0.725691,9.74892
15021921,0.995551,-0.0514922,0.025411,0.0747115,-0.177231,-0.787961,9.68904
15044936,0.995552,-0.051436,0.0252878,0.0747734,0.00479004,-0.704136,9.7561
15057105,0.995541,-0.0515582,0.0253006,0.0748275,-0.134121,-0.771196,9.81119
15078922,0.995529,-0.0516584,0.0253506,0.074903,-0.0311353,-0.773591,9.69862
15091109,0.995544,-0.0513767,0.0251518,0.0749679,-0.0814307,-0.737666,9.82316
15113922,0.995528,-0.0515109,0.025187,0.0750698,-0.201182,-0.725691,9.78963
15126106,0.995497,-0.0519066,0.0255449,0.0750958,0.0119751,-0.797542,9.66509
15147921,0.995503,-0.0518751,0.0254861,0.0750607,-0.474214,-1.00351,9.64354
15160106,0.995529,-0.0515278,0.0253925,0.0749857,-0.203577,-0.62031,9.75131
15181922,0.995527,-0.0516686,0.0253527,0.0749264,-0.0215552,-0.64426,10.0196
15194107,0.995501,-0.0520627,0.0254942,0.0749455,-0.102986,-0.761616,9.6627
15215946,0.995508,-0.0518733,0.025402,0.0750184,0.0311353,-0.826282,9.53816
15228105,0.995508,-0.0516998,0.0252879,0.075176,-0.153281,-0.744851,9.94531
15249922,0.995481,-0.0520825,0.0255831,0.0751722,-0.304167,-0.759221,9.75131
15262108,0.995487,-0.0519883,0.0254567,0.0751945,-0.177231,-0.802332,9.55971
15284939,0.995507,-0.0517644,0.025276,0.0751535,-0.308958,-0.747246,9.86148
15297107,0.995483,-0.0520857,0.0255165,0.0751656,-0.114961,-0.747246,9.81598
15318922,0.995489,-0.0520962,0.0253761,0.0751193,0.0718506,-0.814307,9.61719
15331438,0.995501,-0.0518492,0.0253245,0.0751497,-0.222737,-0.771196,9.7585
15354921,0.995482,-0.0520705,0.025519,0.0751824,-0.196392,-0.737666,9.7585
15367106,0.995482,-0.0521057,0.025514,0.0751658,-0.191602,-0.756826,9.63635
15388921,0.995523,-0.0516487,0.0249324,0.075134,-0.150886,-0.668211,9.89501
15401105,0.9955,-0.0520234,0.0250849,0.0751301,-0.383203,-1.09931,9.70341
15422922,0.995506,-0.0519468,0.0254774,0.0749723,-0.0239502,-0.687371,9.53816
15444921,0.995547,-0.0515133,0.0251581,0.0748372,0.110171,-0.603545,10.0459
15457112,0.995527,-0.0519255,0.0252927,0.0747608,-0.256267,-0.668211,9.67228
15478922,0.995507,-0.0519665,0.025624,0.0748889,-0.380808,-0.981958,9.50702
15491111,0.99553,-0.0515636,0.0253541,0.0749624,0.0766406,-0.768801,9.88064
15512971,0.995519,-0.0518745,0.0255129,0.074834,-0.239502,-0.668211,9.87585
15525111,0.995515,-0.052,0.0256055,0.0747739,-0.222737,-0.826282,9.5645
15546922,0.995524,-0.0517796,0.0254255,0.0748595,-0.107776,-0.852627,9.72497
15559112,0.995518,-0.0518764,0.0254906,0.0748511,-0.0790356,-0.670605,9.86867
15580946,0.995507,-0.0519825,0.0254704,0.0749378,-0.222737,-0.778381,9.70341
15593111,0.995512,-0.0517916,0.0254584,0.0750024,-0.160466,-0.704136,9.72018
15614922,0.995513,-0.0518756,0.025413,0.0749453,-0.0479004,-0.785566,9.89501
15636946,0.995506,-0.0520609,0.0254991,0.0748884,-0.287402,-0.740061,9.73694
15649105,0.995508,-0.0519702,0.0255151,0.0749062,-0.105381,-0.775986,9.68186
15670922,0.995504,-0.0519812,0.025389,0.0749989,-0.0790356,-0.773591,9.83753
15683108,0.995492,-0.0521502,0.025449,0.0750214,-0.261057,-0.797542,9.7106
15705921,0.995492,-0.0520881,0.0253391,0.0751026,-0.0502954,-0.823887,9.67228
15718108,0.995499,-0.0520611,0.0253039,0.075038,-0.112566,-0.756826,9.83993
15739921,0.995492,-0.0521818,0.0254063,0.0750122,-0.165256,-0.728086,9.71539
15752135,0.995495,-0.0521371,0.0253565,0.0750292,-0.124541,-0.795147,9.6627
15773922,0.995493,-0.0521299,0.0253492,0.0750628,-0.237107,-0.740061,9.82316
15786103,0.995482,-0.0522116,0.025363,0.0751385,-0.100591,-0.747246,9.76808
15807921,0.995486,-0.0522333,0.0252863,0.075103,-0.203577,-0.720901,9.69144
15820105,0.995494,-0.0521775,0.0252465,0.0750441,-0.160466,-0.802332,9.76568
15841922,0.99549,-0.0522168,0.0252712,0.0750685,-0.0335303,-0.814307,9.73934
15863921,0.99549,-0.0522784,0.0253519,0.0749973,-0.217947,-0.780776,9.77526
15876112,0.99549,-0.0522424,0.025365,0.0750108,-0.112566,-0.785566,9.76568
15897922,0.995488,-0.0522383,0.0253556,0.0750467,-0.134121,-0.749641,9.76808
15910111,0.995487,-0.0522,0.025376,0.0750742,-0.170046,-0.811912,9.804
15931967,0.995492,-0.0521716,0.0253134,0.0750592,-0.124541,-0.749641,9.78484
15944111,0.995487,-0.0522246,0.0252969,0.0750878,-0.119751,-0.706531,9.74652
15965921,0.995485,-0.0522662,0.0252806,0.0750942,-0.0479004,-0.756826,9.74652
15978111,0.995474,-0.052289,0.0253049,0.0752144,-0.186812,-0.821492,9.77047
15999951,0.995472,-0.0523233,0.0253714,0.0751959,-0.141306,-0.790356,9.804
16012111,0.995475,-0.052324,0.0253467,0.0751565,-0.110171,-0.809517,9.78724
16033922,0.995475,-0.0522708,0.0253603,0.0751884,-0.174836,-0.732876,9.75131
16056946,0.995475,-0.0522741,0.0253175,0.075206,-0.136516,-0.718506,9.78005
16069111,0.995467,-0.0523842,0.0254082,0.0752085,-0.117356,-0.775986,9.77047
16090922,0.995464,-0.0524679,0.0254867,0.0751611,-0.167651,-0.747246,9.7082
16103112,0.995472,-0.0524015,0.0254453,0.0751158,-0.210762,-0.835862,9.71539
16125921,0.995468,-0.0524203,0.0253879,0.0751724,-0.179626,-0.701741,9.77287
16138113,0.995466,-0.0524841,0.0253818,0.0751519,-0.0694556,-0.778381,9.79442
16159921,0.995465,-0.0525073,0.0254226,0.0751447,-0.0479004,-0.742456,9.7561
16172138,0.995473,-0.0524299,0.0254154,0.0750937,-0.138911,-0.773591,9.7585
16193922,0.99547,-0.0524746,0.0254807,0.0750731,-0.186812,-0.749641,9.78005
16206107,0.995467,-0.0525522,0.0254838,0.0750596,-0.249082,-0.797542,9.69383
16227921,0.995479,-0.0524493,0.0254086,0.0749939,-0.191602,-0.778381,9.77526
16240104,0.995483,-0.0524725,0.0253789,0.074942,-0.138911,-0.797542,9.70341
16261921,0.995478,-0.0525587,0.0254505,0.074922,-0.129331,-0.747246,9.77287
16274105,0.995484,-0.0524763,0.0254343,0.0749024,-0.0934058,-0.749641,9.75371
16295960,0.995476,-0.0524947,0.0253849,0.0750126,-0.193997,-0.756826,9.73694
16317921,0.995473,-0.0524917,0.0253738,0.0750675,-0.141306,-0.771196,9.69623
16330107,0.99547,-0.0524405,0.0253792,0.075132,-0.0886157,-0.756826,9.82316
16351952,0.99547,-0.0524389,0.0253731,0.0751366,-0.102986,-0.732876,9.87585
16364111,0.995467,-0.0525097,0.025364,0.0751365,-0.201182,-0.807122,9.72497
16385922,0.995474,-0.0524109,0.0252904,0.0751396,-0.131726,-0.819097,9.69623
16398112,0.995476,-0.0523838,0.0252505,0.0751372,-0.00718506,-0.752036,9.81358
16419950,0.995479,-0.0524248,0.0253197,0.0750512,-0.0838257,-0.692161,9.78245
16432111,0.99548,-0.0524071,0.0253117,0.0750456,-0.148491,-0.787961,9.68665
16453922,0.995482,-0.0523906,0.0253599,0.0750197,-0.203577,-0.730481,9.75131
16466111,0.995476,-0.0524698,0.0254117,0.0750225,-0.155676,-0.775986,9.804
16487921,0.995478,-0.0524649,0.0253887,0.075006,-0.150886,-0.759221,9.75131
16509922,0.995481,-0.0523946,0.0252732,0.0750639,-0.136516,-0.742456,9.78245
16522111,0.995478,-0.0524093,0.0252766,0.0750817,-0.0790356,-0.761616,9.72497
16544936,0.995467,-0.0524422,0.0253142,0.0752018,-0.136516,-0.737666,9.73694
16557108,0.995467,-0.052455,0.0253055,0.0751883,-0.174836,-0.804727,9.77766
16578922,0.995468,-0.05246,0.0253121,0.0751706,-0.124541,-0.747246,9.77287
16591122,0.995463,-0.0525292,0.0252968,0.0751941,-0.158071,-0.756826,9.71539
16614922,0.99546,-0.0525167,0.0252833,0.0752412,-0.153281,-0.759221,9.73215
16627111,0.995457,-0.0524876,0.0252436,0.0753159,-0.126936,-0.728086,9.79921
16648921,0.995449,-0.0525361,0.0253035,0.0753738,-0.110171,-0.771196,9.77766
16661112,0.995438,-0.0525742,0.0253796,0.0754599,-0.239502,-0.802332,9.72976
16682922,0.995445,-0.0524586,0.0252821,0.075487,-0.167651,-0.696951,9.81358
16695111,0.995441,-0.0525887,0.0252408,0.0754588,-0.119751,-0.790356,9.78724
16716946,0.995428,-0.0527071,0.0252804,0.075534,-0.0167651,-0.783171,9.74413
16729111,0.995432,-0.0526203,0.0253019,0.0755364,-0.0790356,-0.771196,9.7561
16750922,0.995424,-0.0526637,0.0252839,0.0756207,-0.232317,-0.783171,9.804
16763112,0.995413,-0.0526842,0.0252962,0.075751,-0.189207,-0.732876,9.69144
16784921,0.995413,-0.0526171,0.0252036,0.0758268,-0.143701,-0.713716,9.77047
16797111,0.995404,-0.0526941,0.0252393,0.0758794,-0.107776,-0.735271,9.82077
16818921,0.9954,-0.0527544,0.0252342,0.0758927,-0.131726,-0.744851,9.69862
16840946,0.995413,-0.0526953,0.0251551,0.0757875,-0.122146,-0.752036,9.78484
16853111,0.99541,-0.0526941,0.0251744,0.0758168,-0.0646655,-0.778381,9.78245
16875922,0.995403,-0.052796,0.0252977,0.0757941,-0.0670606,-0.833467,9.73694
16888111,0.995405,-0.0527024,0.0252675,0.0758515,-0.167651,-0.790356,9.73455
16910921,0.995407,-0.0526694,0.0252133,0.0758682,-0.217947,-0.684976,9.8064
16923113,0.995401,-0.052768,0.0252575,0.0758544,-0.0598755,-0.747246,9.79682
16944921,0.9954,-0.0527641,0.0252636,0.0758739,-0.0981958,-0.764011,9.75131
16957113,0.995404,-0.0526782,0.0252584,0.0758766,-0.153281,-0.730481,9.77766
16978922,0.995394,-0.0527557,0.0253156,0.075933,-0.191602,-0.764011,9.79682
16991111,0.995392,-0.0527584,0.0253367,0.0759609,-0.162861,-0.761616,9.65791
17012971,0.995383,-0.0527874,0.0252663,0.0760737,-0.143701,-0.795147,9.74892
17025111,0.995379,-0.0528172,0.025237,0.0761144,-0.155676,-0.790356,9.76329
17046922,0.995388,-0.0527634,0.0251437,0.0760658,-0.0622705,-0.771196,9.72018
17059112,0.995387,-0.0527661,0.0252617,0.0760439,-0.208367,-0.749641,9.76568
17080946,0.995386,-0.0526932,0.0253494,0.0760731,-0.0574805,-0.764011,9.77287
17102921,0.995388,-0.0527797,0.0253225,0.0759971,-0.0958008,-0.814307,9.72018
17115113,0.995399,-0.0526547,0.0253089,0.0759434,-0.361648,-0.732876,9.74413
17136946,0.995389,-0.0526996,0.0253592,0.0760232,-0.0718506,-0.752036,9.77526
17149111,0.995386,-0.0527788,0.0253816,0.0759998,0.0383203,-0.780776,9.73215
17170922,0.99539,-0.0527344,0.0253871,0.0759821,-0.330513,-0.778381,9.66509
17183112,0.995387,-0.052653,0.0253526,0.07609,-0.107776,-0.766406,9.81358
17204921,0.995384,-0.0527216,0.0253314,0.0760852,-0.184417,-0.814307,9.78724
17217113,0.995375,-0.0527854,0.0253925,0.0761452,-0.184417,-0.790356,9.7106
17238921,0.995371,-0.0527451,0.0253823,0.0762246,-0.0574805,-0.675396,9.76808
17251142,0.995372,-0.0527801,0.0254531,0.0761705,-0.246687,-0.759221,9.78724
17273921,0.995365,-0.0528116,0.0254744,0.0762287,-0.112566,-0.785566,9.72018
17286111,0.995362,-0.0527918,0.0254272,0.0762964,-0.119751,-0.694556,9.74173
17307921,0.995358,-0.052776,0.0253922,0.0763749,-0.107776,-0.752036,9.77526
17329921,0.995354,-0.0528091,0.025328,0.076424,-0.0790356,-0.792751,9.72257
17342113,0.995358,-0.0528201,0.0253979,0.0763338,-0.210762,-0.787961,9.75131
17363921,0.995361,-0.0528494,0.0254808,0.0762459,-0.0646655,-0.775986,9.78963
17376111,0.995364,-0.052839,0.0254334,0.0762321,-0.155676,-0.804727,9.76329
17397922,0.995367,-0.0527884,0.0254296,0.0762341,-0.208367,-0.821492,9.72018
17410111,0.995366,-0.0528108,0.0254633,0.0762128,-0.0574805,-0.747246,9.74413
17431950,0.99536,-0.0528646,0.0254904,0.0762481,-0.102986,-0.756826,9.73455
17444112,0.995358,-0.0528664,0.0255002,0.0762675,-0.158071,-0.802332,9.75131
17465922,0.995356,-0.052847,0.0256002,0.0762779,-0.174836,-0.778381,9.74892
17478111,0.995355,-0.0528661,0.0255652,0.0762885,-0.186812,-0.759221,9.7585
17499939,0.995354,-0.0528767,0.0254744,0.07633,-0.153281,-0.730481,9.78963
17521922,0.995356,-0.0528553,0.0253991,0.0763426,-0.160466,-0.797542,9.72736
17534107,0.995352,-0.0528527,0.0254027,0.0763957,-0.0574805,-0.768801,9.79442
17555946,0.995351,-0.0528788,0.0255188,0.0763439,-0.102986,-0.732876,9.73694
17568111,0.995349,-0.0528883,0.0255465,0.0763637,-0.167651,-0.684976,9.74892
17589922,0.995346,-0.0528496,0.0255135,0.0764331,-0.174836,-0.795147,9.7561
17602112,0.995345,-0.0528872,0.0254632,0.0764396,-0.158071,-0.761616,9.71778
17624936,0.995347,-0.0529197,0.0255154,0.0763771,-0.107776,-0.792751,9.72257
17637111,0.995348,-0.0529041,0.02551,0.0763667,-0.162861,-0.792751,9.76329
17658922,0.995347,-0.0529225,0.0254739,0.0763832,-0.210762,-0.740061,9.76568
17671118,0.995342,-0.0529838,0.0256172,0.0763582,-0.0862207,-0.754431,9.76808
17694922,0.995343,-0.0529326,0.0255314,0.0764106,-0.0287402,-0.764011,9.78484
17707105,0.995333,-0.0528898,0.0254117,0.076609,-0.117356,-0.708926,9.76808
17728921,0.995315,-0.0530324,0.0256094,0.0766777,-0.184417,-0.785566,9.78963
17741108,0.995314,-0.0530454,0.0256758,0.0766665,-0.148491,-0.775986,9.73934
17762922,0.995326,-0.0528927,0.0255944,0.0766384,-0.229922,-0.756826,9.81837
17775111,0.995322,-0.0529683,0.0256136,0.0766265,-0.153281,-0.742456,9.75131
17796946,0.99532,-0.0530555,0.0256291,0.0765915,-0.0766406,-0.852627,9.68425
17809111,0.995328,-0.0529539,0.0255586,0.0765804,-0.0981958,-0.725691,9.72976
17830922,0.995327,-0.0529642,0.0255932,0.0765811,-0.172441,-0.728086,9.76089
17853966,0.995317,-0.0530649,0.0257471,0.0765863,-0.138911,-0.718506,9.70581
17866111,0.995337,-0.053003,0.0256693,0.0763978,-0.114961,-0.752036,9.75371
17887922,0.995337,-0.053044,0.0256191,0.0763786,-0.150886,-0.799937,9.79682
17900112,0.995333,-0.0531245,0.0256018,0.0763801,-0.129331,-0.775986,9.76089
17921921,0.995336,-0.053051,0.0255963,0.0764012,-0.155676,-0.749641,9.71299
17934111,0.995332,-0.0530642,0.0256168,0.0764392,-0.165256,-0.696951,9.78724
17955921,0.995323,-0.0531649,0.0256928,0.0764588,-0.148491,-0.725691,9.64114
17968111,0.995321,-0.0531431,0.0256803,0.0764993,-0.122146,-0.773591,9.78245
17990921,0.995321,-0.0531144,0.025539,0.0765661,-0.119751,-0.742456,9.77526
18003113,0.995315,-0.0531681,0.0255501,0.0766072,-0.117356,-0.773591,9.76568
18024921,0.995308,-0.0532357,0.0256393,0.0766249,-0.122146,-0.778381,9.7561
18037113,0.995305,-0.0532042,0.0256746,0.0766727,-0.232317,-0.744851,9.76808
18058922,0.995311,-0.053163,0.0257145,0.0766027,-0.177231,-0.716111,9.82316
18071111,0.995304,-0.0532986,0.0257115,0.0766096,-0.138911,-0.804727,9.69862
18092969,0.995312,-0.0532092,0.0255679,0.076616,-0.0143701,-0.775986,9.74173
18114921,0.995309,-0.0531996,0.0255437,0.0766595,-0.160466,-0.708926,9.86148
18127113,0.995289,-0.0533421,0.0256372,0.0767933,-0.184417,-0.773591,9.74413
18149922,0.995296,-0.0533223,0.0255321,0.076755,-0.0862207,-0.737666,9.69623
18162111,0.995299,-0.0532577,0.0254826,0.0767671,-0.234712,-0.723296,9.79921
18183922,0.995294,-0.0533273,0.0255568,0.0767618,-0.119751,-0.730481,9.74413
18196112,0.995296,-0.0533164,0.0254702,0.0767691,-0.0574805,-0.814307,9.69623
18217946,0.995299,-0.0532623,0.0254519,0.076787,-0.193997,-0.771196,9.78963
18230111,0.995286,-0.0534003,0.0255061,0.0768415,-0.0790356,-0.720901,9.78484
18251922,0.995283,-0.0534157,0.025518,0.076865,-0.191602,-0.814307,9.66988
18264111,0.995281,-0.053405,0.0255249,0.0768844,-0.160466,-0.740061,9.77526
18286921,0.995276,-0.0534374,0.0255267,0.0769328,-0.114961,-0.716111,9.76089
18299113,0.995277,-0.0533909,0.0255061,0.0769618,-0.136516,-0.754431,9.69623
18320921,0.995273,-0.053418,0.0255296,0.0769886,-0.129331,-0.778381,9.77766
18333130,0.99527,-0.0534839,0.0255958,0.0769536,-0.158071,-0.778381,9.76568
18354921,0.995271,-0.0534248,0.0256208,0.0769731,-0.146096,-0.720901,9.78005
18376922,0.995275,-0.0533979,0.0254954,0.0769874,-0.136516,-0.764011,9.79442
18389112,0.995267,-0.0534834,0.0255097,0.0770233,-0.191602,-0.797542,9.74652
18410921,0.995272,-0.0534497,0.0254964,0.0769792,-0.136516,-0.768801,9.70341
18423113,0.995281,-0.0534252,0.0254579,0.0768988,-0.129331,-0.852627,9.79682
18444921,0.995277,-0.0535257,0.0255877,0.0768381,-0.162861,-0.742456,9.78005
18457111,0.995272,-0.0535052,0.0256327,0.0769038,-0.134121,-0.752036,9.70581
18478922,0.995269,-0.0534519,0.0255935,0.0769894,-0.148491,-0.775986,9.74892
18491111,0.995258,-0.0534626,0.0256041,0.077119,-0.170046,-0.735271,9.7585
18512967,0.995262,-0.0534418,0.0255806,0.0770924,-0.0790356,-0.756826,9.7585
18525111,0.995264,-0.0533773,0.0255589,0.0771126,-0.131726,-0.764011,9.77047
18546922,0.995251,-0.0534637,0.0256172,0.07721,-0.136516,-0.725691,9.69144
18569922,0.995245,-0.0535116,0.0256576,0.0772378,-0.182021,-0.775986,9.72497
18582111,0.995239,-0.0535145,0.0256791,0.0773078,-0.201182,-0.756826,9.78005
18603922,0.995231,-0.0535335,0.0256856,0.0773908,-0.167651,-0.795147,9.71299
18616112,0.995226,-0.0535819,0.0257287,0.0774081,-0.143701,-0.737666,9.7561
18637946,0.995232,-0.0536102,0.0257356,0.0773152,-0.0790356,-0.754431,9.76329
18650111,0.995232,-0.0536347,0.025717,0.0772985,-0.141306,-0.740061,9.73455
18671922,0.995232,-0.0537469,0.025849,0.0771768,-0.170046,-0.759221,9.73215
18684111,0.995247,-0.0536448,0.0257422,0.0770907,-0.191602,-0.708926,9.72257
18706921,0.995247,-0.0536266,0.0257698,0.0770955,-0.239502,-0.807122,9.73934
18719113,0.99525,-0.0537056,0.025809,0.0769824,-0.114961,-0.764011,9.72257
18740921,0.995255,-0.0537217,0.0258096,0.0769106,-0.0934058,-0.831072,9.70102
18753130,0.995259,-0.0536392,0.0257801,0.0769275,-0.129331,-0.728086,9.74892
18774921,0.995264,-0.0536542,0.0257758,0.0768583,-0.146096,-0.747246,9.7585
18787113,0.99527,-0.0536517,0.0256966,0.0768024,-0.270637,-0.785566,9.73694
18809922,0.995273,-0.0536089,0.0256636,0.0768109,-0.0670606,-0.742456,9.7106
18822111,0.995264,-0.0536859,0.0257574,0.0768307,-0.131726,-0.773591,9.78484
18843922,0.995264,-0.0536857,0.0257888,0.0768286,-0.177231,-0.775986,9.77287
18856112,0.995262,-0.05371,0.025761,0.0768473,-0.160466,-0.732876,9.73215
18877922,0.99527,-0.0536756,0.0257433,0.0767699,-0.201182,-0.780776,9.71539
18899921,0.995265,-0.0537024,0.0257471,0.0768182,-0.112566,-0.795147,9.75131
18912111,0.995259,-0.0537404,0.0257792,0.0768516,-0.0287402,-0.740061,9.72976
18933966,0.995259,-0.0537153,0.0258527,0.0768522,-0.122146,-0.787961,9.76568
18946113,0.995258,-0.0536478,0.025872,0.0769002,-0.165256,-0.735271,9.79921
18967921,0.995251,-0.0537267,0.0258936,0.0769372,-0.213157,-0.785566,9.80161
18980111,0.995249,-0.053743,0.0258818,0.0769439,-0.114961,-0.706531,9.75371
19001950,0.995248,-0.0537391,0.0259149,0.0769562,-0.141306,-0.783171,9.77287
19014111,0.995244,-0.0537672,0.0259701,0.0769733,-0.134121,-0.833467,9.73215
19035922,0.99524,-0.0537003,0.0259392,0.0770759,-0.150886,-0.790356,9.68186
19048112,0.995233,-0.0537219,0.0259296,0.0771536,-0.198787,-0.761616,9.70102
19069921,0.995233,-0.0537012,0.0259267,0.0771644,-0.126936,-0.737666,9.76568
19092922,0.995226,-0.0537137,0.0258818,0.0772691,-0.0670606,-0.783171,9.78005
19105111,0.995226,-0.0537307,0.0258813,0.0772502,-0.124541,-0.790356,9.6627
19127921,0.995231,-0.0536072,0.0258764,0.0772746,-0.201182,-0.742456,9.75131
19140113,0.995225,-0.0535725,0.0259048,0.0773657,-0.150886,-0.704136,9.86148
19161921,0.995211,-0.0537147,0.02596,0.0774355,-0.0886157,-0.795147,9.75131
19174111,0.99521,-0.0536517,0.0260044,0.0774726,-0.193997,-0.785566,9.67467
19195921,0.995207,-0.0536145,0.0260246,0.0775376,-0.198787,-0.783171,9.76808
19208111,0.995205,-0.053595,0.0259866,0.0775794,-0.170046,-0.732876,9.73215
19229922,0.995217,-0.0534706,0.0259156,0.0775437,-0.119751,-0.752036,9.76568
19242114,0.995225,-0.0534111,0.0258585,0.0774998,0.0191602,-0.60115,9.804
19263921,0.995216,-0.0535169,0.025834,0.0775433,0.0574805,-0.737666,9.77287
19276111,0.99521,-0.0535109,0.0259405,0.0775904,-0.150886,-0.797542,9.71539
19297946,0.995208,-0.0534404,0.0259918,0.0776534,-0.342488,-0.816702,9.76329
19310111,0.995211,-0.0533858,0.0258968,0.0776813,-0.301772,-0.835862,9.73694
19331922,0.995226,-0.0533652,0.0258016,0.0775379,-0.0981958,-0.759221,9.77766
19354946,0.995236,-0.0532426,0.0257539,0.0775127,-0.150886,-0.58678,9.83274
19367111,0.995225,-0.0533128,0.0257997,0.0775891,0.184417,-0.759221,9.78484
19388922,0.995217,-0.0533413,0.0258181,0.077664,-0.0359253,-0.752036,9.78005
19401112,0.995212,-0.0531776,0.025867,0.0778225,-0.433499,-0.761616,9.73934
19423948,0.995197,-0.0532266,0.025923,0.0779604,0.0766406,-0.486189,9.75371
19436111,0.995197,-0.0534149,0.0259432,0.0778301,-0.191602,-0.833467,9.73455
19457922,0.995198,-0.0543943,0.0258156,0.0771772,0.0934058,0.141306,9.26991
19470116,0.995037,-0.0562004,0.0265964,0.0776876,-0.162861,-1.61664,10.3573
19491921,0.995009,-0.0571964,0.0235888,0.0782884,-0.958008,-1.62622,9.37051
19504113,0.994939,-0.057386,0.025568,0.0784196,0.244292,0.0431104,8.69032
19525921,0.994995,-0.0567452,0.0247056,0.0784459,-0.414338,0.790356,11.7847
19538113,0.994887,-0.0582651,0.0239703,0.0789374,-1.18074,-1.35558,10.7644
19559922,0.994805,-0.0592956,0.0232352,0.0794156,0.208367,-1.42264,9.57887
19572111,0.994893,-0.0582265,0.0214533,0.0796053,0.399968,-0.926873,9.31781
19593922,0.994929,-0.0577219,0.0218226,0.079419,-1.07297,-1.91841,9.91178
19615921,0.994914,-0.0569227,0.023912,0.0795847,0.292192,-1.43462,12.0529
19628111,0.994825,-0.0597386,0.0214456,0.0793407,0.438289,-0.210762,9.36811
19649922,0.994928,-0.0580426,0.0226246,0.0789791,0.208367,-0.0239502,9.15974
19662114,0.994895,-0.0592792,0.0223566,0.0785513,-0.0598755,-0.900527,10.7979
19683921,0.994857,-0.0601709,0.0216384,0.0785588,-0.196392,-1.15679,9.0376
19696111,0.994913,-0.0588711,0.0224007,0.0786228,0.210762,-0.665815,9.6627
19717946,0.994879,-0.0597714,0.0216646,0.0785767,-0.840652,-0.438289,10.3309
19730111,0.994823,-0.0606757,0.0225064,0.0783563,0.296982,-1.33642,9.30105
19751922,0.994889,-0.0598428,0.0223266,0.0782018,-0.146096,-0.862207,9.57169
19764112,0.994878,-0.0601473,0.022328,0.0781173,-1.04183,-0.936453,10.0794
19785921,0.994823,-0.0609171,0.0227148,0.0780999,0.330513,-1.09213,9.48786
19798413,0.99487,-0.0603474,0.0225996,0.0779773,-0.112566,-1.02028,9.53337
19820921,0.994889,-0.0601701,0.0225266,0.0778982,-0.519719,-1.00112,10.1034
19833136,0.994855,-0.060784,0.0227267,0.0777981,-0.265847,-1.06818,9.68665
19854921,0.994861,-0.0607022,0.0228781,0.0777337,-0.359253,-1.12326,9.50463
19876922,0.994886,-0.0604215,0.0225411,0.0777341,-0.0191602,-1.06818,9.96208
19889111,0.994869,-0.0608711,0.0226998,0.0775618,-0.213157,-1.0562,9.80879
19910921,0.994865,-0.0609913,0.0228883,0.0774533,-0.232317,-1.06818,9.57648
19923113,0.994894,-0.0608176,0.0226773,0.0772865,-0.191602,-0.979563,9.82795
19944921,0.994893,-0.0609425,0.0228093,0.0771657,-0.387993,-0.989143,9.7561
19957111,0.994901,-0.0609215,0.0229303,0.0770308,-0.170046,-1.04183,9.62198
19978922,0.994944,-0.0605495,0.0226871,0.0768438,-0.179626,-0.831072,9.83993
19991111,0.994949,-0.0606711,0.0228027,0.0766516,-0.193997,-0.864602,9.95728
20012922,0.994952,-0.0610169,0.0228469,0.0763228,0.0479004,-1.02986,9.62677
20025111,0.994991,-0.0607136,0.0226601,0.0761144,0.105381,-1.04902,9.7585
20046921,0.994981,-0.0609187,0.0228814,0.0760163,0,-0.852627,9.96208
20068921,0.994966,-0.0611505,0.0230784,0.0759684,-0.00958008,-1.02267,9.519
20081108,0.994981,-0.0608637,0.0230615,0.0760068,-0.0670606,-0.965193,9.72257
20102922,0.99498,-0.0608572,0.0231955,0.0759851,-0.232317,-0.977168,9.98602
20115112,0.994937,-0.0614236,0.0236983,0.0759284,-0.387993,-1.02028,9.64354
20136946,0.994951,-0.0611691,0.023674,0.0759636,-0.196392,-0.902922,9.56929
20149111,0.994952,-0.0610983,0.0238322,0.0759522,-0.522114,-0.871787,10.0339
20171921,0.994913,-0.0615917,0.0242302,0.0759488,-0.347278,-0.814307,9.6627
20184111,0.994928,-0.0615306,0.0241691,0.0758157,-0.148491,-0.843047,9.44954
20206921,0.994966,-0.0610645,0.0239358,0.0757629,-0.320933,-0.881367,9.87585
20219113,0.994966,-0.0613054,0.0240601,0.0755283,-0.170046,-0.876577,9.9022
20240921,0.994975,-0.0614717,0.0241209,0.0752653,-0.0766406,-0.811912,9.52139
20253135,0.995019,-0.0611318,0.0238092,0.0750576,0.112566,-0.972378,9.84232
20274921,0.99502,-0.0612686,0.0240027,0.0748648,-0.0263452,-0.898132,9.88304
20287113,0.995014,-0.0613688,0.0241232,0.0748301,-0.141306,-0.845442,9.53816
20309922,0.995047,-0.0609281,0.023905,0.0748238,-0.00239502,-0.747246,9.71299
20322111,0.995038,-0.0609344,0.024061,0.0748798,-0.0934058,-0.665815,9.97645
20343922,0.995035,-0.0609874,0.0238567,0.074942,0.114961,-0.922083,9.77287
20366921,0.995051,-0.0606407,0.0236675,0.0750767,0.217947,-0.809517,9.83753
20379111,0.995029,-0.0609091,0.0234885,0.0752015,0.613125,-0.732876,9.90699
20400922,0.995019,-0.0609235,0.0230091,0.0754726,0.840652,-0.809517,9.69862
20413111,0.994965,-0.0609387,0.0229458,0.0761895,0.946033,-0.843047,9.73455
20434946,0.994909,-0.0606525,0.0226474,0.0772364,0.694556,-0.840652,9.77766
20447111,0.994793,-0.0608507,0.0227832,0.0785138,0.608335,-0.713716,9.92136
20468922,0.994676,-0.0609307,0.0229625,0.0798762,0.368833,-0.948428,9.59564
20481112,0.99458,-0.0607422,0.0227536,0.0812644,0.519719,-0.759221,9.95968
20503948,0.994406,-0.0614176,0.0229528,0.0828109,-0.0479004,-0.962798,9.74892
20516111,0.994262,-0.0614332,0.0230689,0.0844766,0.220342,-0.898132,9.38488
20537922,0.994174,-0.0608474,0.022422,0.086097,0.677791,-0.876577,10.1872
20550120,0.994013,-0.0612061,0.0227988,0.0875874,-0.414338,-0.574805,9.89022
20572921,0.993879,-0.0613782,0.0226938,0.0890034,-0.289797,-0.919688,9.22441
20585113,0.993829,-0.0608391,0.0221283,0.0900666,-0.251477,-1.00112,9.41841
20606921,0.993709,-0.0616999,0.0219913,0.0908439,-0.462239,-0.589175,10.0363
20619113,0.993571,-0.0628015,0.0228202,0.0913862,-0.617915,-1.1999,9.10945
20640922,0.993658,-0.0609674,0.0220512,0.091876,-0.895737,-0.962798,9.38488
20662921,0.993583,-0.0622774,0.0218659,0.0918491,-0.361648,-1.19511,10.089
20675113,0.993551,-0.062922,0.0223024,0.0916543,-0.265847,-1.35319,8.76217
20696922,0.993641,-0.0611503,0.0231459,0.0916604,-0.292192,-0.850232,10.9081
20709111,0.993576,-0.0630802,0.0229309,0.0911196,-0.172441,-0.874182,9.79921
20730925,0.993571,-0.0636863,0.023209,0.0906741,-0.627495,-1.11129,8.61128
20743113,0.993695,-0.0621235,0.022776,0.0905097,0.0766406,-1.14482,10.1393
20764921,0.993744,-0.062415,0.021995,0.0899666,0.0646655,-1.08734,10.3285
20777111,0.993673,-0.0639235,0.0228549,0.0894682,-0.483794,-1.29331,8.71906
20798946,0.993805,-0.0625828,0.0218845,0.0891954,0.253872,-1.37474,9.81837
20811111,0.993861,-0.0624405,0.0226919,0.0884669,-0.617915,-0.833467,9.96687
20832922,0.99392,-0.0627327,0.0223141,0.0876899,-0.397573,-1.34361,9.25075
20845411,0.993957,-0.0630104,0.0228573,0.0869305,-0.136516,-1.10171,10.3884
20867921,0.994053,-0.0630612,0.0216862,0.0860854,-0.373623,-1.11608,8.85079
20880113,0.994233,-0.0611238,0.0215017,0.0854547,0.105381,-1.26457,9.97405
20901921,0.994272,-0.061376,0.0222698,0.0846223,0.332908,-1.62382,10.2231
20924936,0.994293,-0.0620078,0.0226455,0.0838103,-0.143701,-0.991538,9.89501
20937109,0.994314,-0.0624527,0.0234713,0.0829921,-0.213157,-0.890947,9.11424
20959921,0.99438,-0.0618344,0.0239654,0.0825314,-0.962798,-0.253872,10.6231
20972142,0.994363,-0.0630678,0.0238641,0.0818185,0.0981958,-1.02986,9.81358
20993922,0.99441,-0.0630128,0.0237874,0.0813126,-0.871787,-1.01549,8.29514
21006114,0.994508,-0.0621642,0.0238456,0.0807522,-0.943638,-0.689766,9.90459
21027921,0.994537,-0.062916,0.0238761,0.0797987,-0.60594,-0.481399,11.3632
21040111,0.994587,-0.0639441,0.0227563,0.078682,-0.0598755,-1.10171,8.81007
21061922,0.994705,-0.06297,0.0238831,0.0776261,-0.61552,-0.258662,8.5059
21074111,0.994724,-0.0636029,0.0236008,0.0769524,-0.253872,0.270637,12.1439
21095946,0.994668,-0.0654932,0.0236689,0.0760637,-0.986748,-1.09931,9.27949
21108111,0.994946,-0.0627921,0.0221216,0.075166,-0.756826,-1.06578,8.29275
21129922,0.994879,-0.0653684,0.0220267,0.0738783,0.203577,-0.883762,10.3333
21142112,0.994851,-0.0666496,0.0232063,0.0727336,0.680186,-0.960403,8.97772
21164936,0.995056,-0.0647185,0.0221389,0.0720115,-1.08973,-0.335303,8.7981
21177111,0.994982,-0.0665525,0.0221914,0.0713443,-0.967588,-0.170046,10.4339
21198922,0.994878,-0.068906,0.0218507,0.0706586,-0.711321,0.261057,11.617
21220946,0.994744,-0.0717726,0.0200219,0.0702282,-0.275427,-1.64538,7.18385
21233111,0.995115,-0.0664257,0.0203656,0.0701408,0.158071,-0.57241,10.0962
21254922,0.994925,-0.069715,0.0217898,0.0692046,0.0814307,-0.775986,9.28907
21267112,0.994888,-0.0702434,0.0231674,0.0687516,-0.598755,-1.30529,8.32388
21288921,0.995126,-0.0672745,0.0206296,0.0690801,-0.495769,-0.409548,10.7189
21301113,0.995142,-0.0673694,0.0205958,0.0687783,-0.376018,0.141306,10.3213
21322921,0.995152,-0.0676943,0.0204549,0.0683528,0.234712,-1.30768,9.02562
21335111,0.995128,-0.0681781,0.0211014,0.0680234,-0.177231,-0.948428,9.43517
21356922,0.995233,-0.066638,0.0208625,0.0680764,-0.780776,-0.560435,10.477
21369111,0.995182,-0.067463,0.0213156,0.0678784,-0.0455054,-0.249082,9.93573
21390928,0.995129,-0.0685526,0.0217629,0.0674227,0.110171,-0.687371,8.75498
21413922,0.995369,-0.0648372,0.0208223,0.0678514,-0.364043,-0.984353,10.877
21426111,0.995256,-0.0664606,0.0207534,0.0679587,-0.141306,0.0766406,10.398
21447921,0.995195,-0.067286,0.0211015,0.067927,0.498164,-0.993933,8.55141
21460109,0.995219,-0.06628,0.0208361,0.0686456,0.229922,-1.12566,10.2375
21481922,0.99525,-0.065222,0.0197737,0.0695142,0.201182,-0.670605,10.3573
21494111,0.995192,-0.0654507,0.019796,0.0701289,0.177231,-0.723296,10.113
21515922,0.995093,-0.0657942,0.0200569,0.0711318,0.65384,-1.31726,8.88192
21528108,0.995279,-0.0618231,0.019823,0.0721414,1.50407,-0.986748,11.2099
21549921,0.995048,-0.0639822,0.0206,0.0732203,0.0958008,-0.170046,10.2615
21562111,0.994959,-0.0641701,0.0216369,0.0739637,-0.380808,-1.04662,8.29754
21584946,0.995068,-0.0601934,0.0236251,0.0752249,-1.08494,-0.857417,12.2924
21597111,0.994875,-0.0626775,0.0243324,0.0755245,-0.534089,-1.04662,9.5645
21618922,0.994912,-0.061813,0.0241315,0.0758144,-0.59157,-0.910107,8.59691
21631123,0.994839,-0.0621298,0.0250539,0.076213,-0.459844,-0.191602,10.2519
21653921,0.994798,-0.062596,0.0244802,0.0765523,0.273032,-0.977168,10.0603
21666111,0.994722,-0.0633816,0.025228,0.0766458,-0.953218,-0.986748,9.62917
21687921,0.994584,-0.0650934,0.0262284,0.0766634,-0.912502,-0.62031,8.48195
21700410,0.994728,-0.0625348,0.0261085,0.076965,0.316143,-0.850232,10.8889
21723922,0.994616,-0.0647121,0.0252654,0.0769001,-0.519719,-0.340093,10.2615
21736111,0.994594,-0.0653067,0.0250254,0.0767557,-0.292192,-1.59029,7.93828
21757946,0.994771,-0.0626019,0.025352,0.0766157,-0.459844,-0.845442,12.3739
21770111,0.994629,-0.0655534,0.0237807,0.07649,0.265847,-0.684976,8.49393
21791922,0.994841,-0.0626481,0.02376,0.0761755,1.01549,-0.799937,9.17651
21814946,0.994576,-0.0664343,0.0233106,0.0765624,-0.0167651,0.431104,12.5535
21827111,0.994309,-0.0695516,0.0247958,0.0767934,0.522114,-1.14003,9.39446
21848922,0.994542,-0.0659451,0.021679,0.0779003,-0.835862,-1.82021,7.51916
21861112,0.994496,-0.0654136,0.0214992,0.0789749,-1.3005,0.0359253,11.1189
21883946,0.994246,-0.0688093,0.021212,0.0793132,0.723296,-0.208367,10.307
21896111,0.994273,-0.0679416,0.0205324,0.0798998,-0.0335303,-1.25978,8.49632
21917922,0.994224,-0.0672681,0.0212961,0.0808768,-0.349673,-0.340093,9.6603
21930117,0.994201,-0.0661749,0.0215953,0.0819696,0.828677,-0.725691,10.4507
21952921,0.994046,-0.0675307,0.0217071,0.0827075,-0.0215552,-0.306563,9.77526
21965113,0.993955,-0.0675492,0.0222014,0.0836476,-0.723296,-0.799937,9.16932
21986921,0.994046,-0.0649755,0.0198409,0.0851901,-1.22625,-1.04902,9.15735
21999113,0.993966,-0.064851,0.0209581,0.085949,-0.943638,0.162861,10.4459
22020922,0.99372,-0.0683181,0.0227478,0.0856456,0.325723,-1.0586,9.38488
22033111,0.993843,-0.065921,0.0212888,0.0864729,0.129331,-0.792751,9.38488
22054946,0.993849,-0.0652953,0.0212258,0.0868967,-0.0479004,-0.0742456,11.7679
22067111,0.993581,-0.0689144,0.0210789,0.087199,-0.0239502,-0.840652,9.14298
22088922,0.993801,-0.0654628,0.0195799,0.0876962,0.950823,-1.11847,8.75498
22111957,0.99376,-0.0661423,0.0194684,0.0876717,-0.888552,0.613125,11.4159
22124113,0.993587,-0.0686557,0.0210376,0.0873371,0.0215552,-0.756826,9.57408
22145921,0.993641,-0.0680925,0.0214079,0.0870805,-0.134121,-0.730481,8.35502
22158111,0.993801,-0.0660403,0.0210537,0.0869216,-1.02986,-0.0598755,12.4146
22179951,0.993636,-0.069096,0.021006,0.0864396,0.0742456,-0.486189,9.39446
22192111,0.993839,-0.0668865,0.0202425,0.0860255,-0.285007,-1.18074,8.0748
22213922,0.993852,-0.0677142,0.0195597,0.0853804,-0.931663,1.08494,12.3858
22226112,0.993765,-0.0699613,0.0191708,0.084666,0.500559,-0.969983,8.85318
22247921,0.994066,-0.0663252,0.018697,0.0841707,-0.457449,-0.56283,8.94659
22260113,0.99391,-0.0696159,0.0196713,0.0831212,0.792751,-1.2526,9.62438
22281921,0.99393,-0.0692681,0.021194,0.0827974,0.148491,-0.823887,8.35741
22294143,0.994132,-0.0666253,0.0189515,0.0830871,-0.574805,0.701741,11.1907
22315922,0.994,-0.0688963,0.0185613,0.0829043,0.0886157,-0.239502,9.82795
22338921,0.994063,-0.0681322,0.0187008,0.0827518,-0.328118,-1.10171,8.04606
22351125,0.99424,-0.0646418,0.0201843,0.0830721,-0.265847,-0.177231,11.9859
22372922,0.994134,-0.0664928,0.0202909,0.0828573,0.114961,0.0670606,10.1872
22385112,0.994062,-0.0677313,0.0213885,0.0824335,-0.0550855,-0.227527,8.01013
22406921,0.99426,-0.0638778,0.0231681,0.0826386,0.517324,-0.876577,11.7272
22419111,0.994094,-0.0664856,0.0230944,0.0826011,0.296982,-0.323328,10.1249
22440922,0.994013,-0.0670367,0.0241523,0.0828281,-0.105381,-0.0958008,7.94068
22453111,0.994137,-0.0642584,0.02518,0.0832404,0.651445,-0.0910107,10.7572
22474946,0.994036,-0.0654762,0.024561,0.0836725,0.155676,-0.0263452,10.1058
22487111,0.993935,-0.0661313,0.0250927,0.0842065,-0.60115,0.0622705,8.5059
22508922,0.994007,-0.0631362,0.0266718,0.0851611,-0.378413,0.102986,11.6625
22521112,0.993792,-0.065842,0.027103,0.0854842,-0.0670606,-0.332908,9.60282
22543936,0.993794,-0.0649502,0.0273131,0.0860775,-0.603545,-0.435894,8.14426
22556111,0.993807,-0.0640753,0.0277517,0.0864432,-0.416733,0.608335,11.7416
22577922,0.993682,-0.0659474,0.0272823,0.0866211,-0.0550855,-1.23104,9.62917
22590115,0.993751,-0.0645722,0.0273588,0.0868409,-0.747246,-0.179626,9.2268
22612921,0.993743,-0.0648276,0.0273344,0.0867527,-0.457449,0.213157,11.2243
22625113,0.993676,-0.0663132,0.0261508,0.0867517,0.239502,-0.421523,9.71539
22646921,0.993721,-0.065227,0.0265939,0.0869329,-0.385598,-0.301772,9.70581
22669921,0.993603,-0.0668742,0.0274206,0.0867654,-0.0215552,-0.304167,10.1896
22682113,0.993549,-0.0678028,0.0280735,0.0864636,0.289797,-0.246687,8.47237
22703921,0.993761,-0.0650513,0.026218,0.0867188,-0.306563,0.268242,9.58127
22716113,0.993742,-0.0651768,0.0270056,0.0866011,-0.613125,0.00239502,10.3046
22737922,0.993669,-0.0662881,0.0282298,0.0861972,0.0838257,-0.191602,9.64114
22750111,0.993798,-0.0651926,0.0263785,0.0861407,0.364043,0.134121,9.61001
22771924,0.993801,-0.0650267,0.0268184,0.0860891,-0.349673,-0.107776,10.0555
22784111,0.993741,-0.0655452,0.0278027,0.0860807,0.397573,-0.361648,9.68425
22805921,0.993818,-0.0647926,0.0264036,0.0861973,0.311353,-0.265847,9.58606
22818111,0.993815,-0.0644244,0.0269399,0.0863456,-0.60594,-0.0335303,10.1249
22839946,0.993742,-0.0650552,0.0276873,0.0864752,0.0981958,-0.423918,9.69862
22852111,0.993785,-0.0645865,0.0268772,0.0865929,-0.220342,-0.464634,9.6148
22873922,0.993805,-0.0640262,0.0267868,0.086802,-0.366438,-0.534089,10.2447
22895952,0.993742,-0.0647293,0.0277774,0.0866901,-0.0814307,-0.66342,9.72018
22908111,0.993767,-0.0644607,0.0271597,0.0868044,-0.217947,-0.984353,9.38488
22929922,0.993803,-0.0637057,0.0271307,0.0869539,-0.117356,-0.792751,9.91896
22942112,0.993734,-0.0643491,0.0278643,0.0870338,-0.189207,-0.713716,9.84232
22964936,0.99373,-0.0642947,0.0276217,0.0872046,-0.160466,-0.917293,9.34177
22977111,0.993766,-0.0637097,0.0273706,0.0872987,-0.122146,-0.838257,9.83993
22998922,0.993738,-0.0639547,0.0277471,0.0873212,-0.258662,-0.704136,9.89022
23011124,0.993728,-0.0639918,0.0276497,0.0874365,-0.00718506,-0.811912,9.55732
23033921,0.993749,-0.0636061,0.0274464,0.0875439,-0.234712,-0.730481,9.84232
23046111,0.993716,-0.0638052,0.0276608,0.0877111,-0.275427,-0.716111,9.84232
23067921,0.993701,-0.0639191,0.0276314,0.0878034,-0.110171,-0.838257,9.56211
23080108,0.993716,-0.0635975,0.0274085,0.0879301,-0.170046,-0.768801,9.78724
23101922,0.993699,-0.0637027,0.0274241,0.0880504,-0.239502,-0.735271,9.82556
23114111,0.993692,-0.0637609,0.0274977,0.0880582,-0.134121,-0.807122,9.68186
23135946,0.993703,-0.0636261,0.0274645,0.0880401,-0.138911,-0.821492,9.76568
23157921,0.993692,-0.0637469,0.0275624,0.0880458,-0.227527,-0.778381,9.77287
23170113,0.993686,-0.0637322,0.0275175,0.0881439,-0.114961,-0.766406,9.64593
23192922,0.993695,-0.063485,0.0273259,0.0882757,-0.0263452,-0.756826,9.82077
23205108,0.993677,-0.0635824,0.0273103,0.0884151,-0.0790356,-0.725691,9.80879
23226921,0.993654,-0.0636373,0.0273931,0.0886084,-0.275427,-0.833467,9.68904
23239111,0.993657,-0.0634489,0.0273103,0.0887325,-0.148491,-0.720901,9.70341
23260946,0.99366,-0.0633749,0.0272744,0.0887696,-0.100591,-0.843047,9.76568
23273111,0.993654,-0.0633117,0.0272853,0.0888778,-0.241897,-0.792751,9.81358
23294922,0.993652,-0.0631903,0.027265,0.0889902,-0.170046,-0.795147,9.73455
23307111,0.993639,-0.0632476,0.0272996,0.0890814,-0.0526904,-0.725691,9.69383
23329921,0.993631,-0.0631863,0.0272637,0.0892327,-0.172441,-0.902922,9.64593
23342113,0.993625,-0.0630272,0.0272702,0.0894103,-0.146096,-0.984353,9.81837
23363921,0.993601,-0.0631869,0.0275482,0.089474,-0.258662,-0.962798,9.78484
23376113,0.993589,-0.0632736,0.0276645,0.0895117,-0.325723,-1.18074,9.63396
23397922,0.993629,-0.0627516,0.0272699,0.0895509,-0.280217,-1.11368,9.69144
23419921,0.993629,-0.0628214,0.0275117,0.0894344,-0.0790356,-1.08494,9.82077
23432141,0.993643,-0.0628498,0.0276726,0.0892072,-0.289797,-1.2502,9.59564
23453922,0.993691,-0.0624067,0.0276525,0.088985,-0.548459,-1.14961,9.64114
23466108,0.993543,-0.0643518,0.0295078,0.0886554,0.122146,-0.459844,9.10466
23487921,0.99365,-0.06354,0.0286705,0.0883245,0,-1.0562,9.86148
23500111,0.993926,-0.0601101,0.0261335,0.0884044,-0.445474,-1.45857,10.9895
23521922,0.993912,-0.0604108,0.0269809,0.0880954,-0.517324,-1.2981,10.6806
23534111,0.99394,-0.0615053,0.0260391,0.0873067,-0.598755,-1.59508,8.80768
23555946,0.994032,-0.0602523,0.0270551,0.0868169,-0.359253,-1.40588,9.88783
23568111,0.994089,-0.0604847,0.0274159,0.0858911,0.467029,-0.917293,10.2112
23589922,0.994139,-0.0611223,0.0268501,0.085031,-0.201182,-1.58071,9.30584
23602411,0.99423,-0.0602204,0.0270716,0.0845365,-0.256267,-1.37714,9.58127
23624921,0.994247,-0.0605095,0.0271849,0.0840983,0.170046,-1.04183,10.0866
23637113,0.994256,-0.0610812,0.0269651,0.0836437,-0.0838257,-1.42264,9.40643
23658921,0.994319,-0.0604928,0.0267816,0.0833844,0.0766406,-1.42743,9.69144
23680946,0.994316,-0.0608831,0.0269154,0.083092,-0.268242,-1.13284,10.0603
23693111,0.994287,-0.0613607,0.0270586,0.083038,-0.0694556,-1.45857,9.47349
23714922,0.994329,-0.0610851,0.0265786,0.0829011,-0.232317,-1.25978,9.61001
23727112,0.994333,-0.0610376,0.0264851,0.0829106,-0.474214,-1.04662,9.87825
23748921,0.994301,-0.0614845,0.0268272,0.0828542,0.289797,-1.24062,9.74173
23761113,0.994346,-0.0611213,0.0261158,0.0828186,-0.112566,-1.37714,9.57887
23782921,0.994338,-0.0610808,0.0263782,0.082857,-0.426313,-1.03465,10.0387
23795111,0.994277,-0.0621092,0.0268152,0.0826839,-0.0239502,-1.29331,9.33937
23816922,0.994343,-0.0611547,0.0263153,0.0827574,-0.428709,-1.43222,9.58366
23829111,0.994315,-0.0618067,0.0264914,0.0825535,-0.0622705,-1.22865,9.83274
23850941,0.994356,-0.0612801,0.0261169,0.0825734,0.0934058,-1.32924,9.57887
23873921,0.994374,-0.0607838,0.026341,0.0826573,-0.126936,-0.960403,10.1058
23886113,0.99433,-0.0612503,0.0267663,0.0827048,-0.136516,-1.1041,9.66509
23907921,0.99438,-0.0606135,0.0262967,0.0827213,-0.273032,-1.17116,9.84711
23920109,0.994383,-0.0605382,0.0260449,0.0828157,0.0263452,-1.10889,10.2112
23941922,0.99426,-0.0619682,0.0271897,0.0828714,0.217947,-1.33642,9.58127
23954111,0.994301,-0.0612285,0.0263431,0.083205,0.138911,-1.42025,9.16932
23975946,0.994349,-0.0596874,0.026942,0.0835524,-0.301772,-0.831072,11.1141
23988111,0.994138,-0.0621828,0.0279061,0.0839313,0.117356,-1.28852,9.79682
24009922,0.994162,-0.0614983,0.0274014,0.084317,-0.294587,-1.41546,8.70708
24022112,0.994228,-0.0590811,0.028384,0.0849424,-0.328118,-1.0586,10.9177
24044921,0.994057,-0.0614456,0.0284224,0.08525,0.289797,-0.943638,9.98363
24057113,0.993963,-0.0621199,0.029204,0.0855951,-0.55325,-1.26457,8.03887
24078921,0.994052,-0.0582404,0.0313382,0.0865251,-0.845442,-0.59157,13.2169
24091156,0.993746,-0.062879,0.0313626,0.0867851,0.0766406,-1.15919,9.54774
24112921,0.993972,-0.0587051,0.0297912,0.0876722,-0.311353,-1.76992,7.36348
24134922,0.993855,-0.0603941,0.0289617,0.0881286,-0.948428,0.167651,12.5798
24147112,0.993596,-0.0634732,0.0297346,0.0886189,0.308958,-1.64059,8.91785
24168921,0.993919,-0.0582997,0.0269986,0.0894292,0.61073,-1.00591,9.31542
24181113,0.993695,-0.0607772,0.0279108,0.0899839,-0.481399,-0.902922,9.75131
24202921,0.993508,-0.0611392,0.0306324,0.0909199,-0.0766406,-1.09692,8.87474
24215111,0.993502,-0.0604647,0.0287676,0.092034,1.11847,-0.328118,9.77766
24236921,0.993343,-0.0613275,0.0297558,0.0928569,-1.10171,-0.998723,9.62677
24249111,0.993126,-0.0629546,0.0306995,0.0937841,-0.744851,-0.775986,9.40643
24270942,0.993195,-0.0616816,0.0280852,0.0947157,-0.404758,-1.05141,8.90348
24283112,0.993147,-0.0615037,0.0281447,0.0953087,-0.754431,-0.926873,10.01
24304922,0.992933,-0.0635787,0.0304157,0.0954809,1.14721,-0.792751,8.40292
24326921,0.993168,-0.0598457,0.0282173,0.0961192,0.117356,-0.682581,10.6638
24339109,0.99289,-0.0622434,0.0298509,0.096972,-0.385598,-0.332908,9.8064
24360922,0.992746,-0.0631311,0.0302806,0.0977341,0.0814307,-1.4921,7.23654
24373111,0.99285,-0.0590753,0.0319268,0.098686,-2.44292,-0.292192,13.5283
24394946,0.99263,-0.0615478,0.0320587,0.0993417,-0.213157,-0.656235,9.64593
24407111,0.992635,-0.0606873,0.0321435,0.0997989,-1.14482,-0.416733,7.65088
24428922,0.992737,-0.0557218,0.0351072,0.100681,-1.33403,-0.843047,12.975
24441112,0.992492,-0.0599362,0.0368132,0.100059,0.184417,-1.03225,9.38008
24463941,0.992574,-0.0590973,0.0372906,0.099571,-0.416733,-0.991538,6.98507
24476111,0.992695,-0.0574241,0.0375439,0.0992479,-0.981958,0.215552,12.6493
24497921,0.992514,-0.0600945,0.0395438,0.098692,-0.138911,-1.32445,9.06634
24510105,0.992761,-0.0567851,0.037647,0.0989134,-1.21188,-1.02986,8.69511
24532922,0.992705,-0.0585957,0.0368425,0.0987209,-0.819097,-0.603545,11.3632
24545112,0.99262,-0.0606597,0.0366905,0.0983834,0.622705,-1.27415,8.37657
24566921,0.992913,-0.0569477,0.0352259,0.0981777,0.172441,-0.517324,10.1728
24588921,0.992773,-0.060273,0.035985,0.0973306,-0.165256,-0.926873,9.74413
24601113,0.9928,-0.0601234,0.03621,0.0970719,-0.65863,-1.95913,8.16341
24622921,0.99317,-0.055382,0.033531,0.0970622,0.66342,-1.13284,11.332
24635108,0.993059,-0.0559522,0.0380059,0.0962177,-0.996328,0.474214,9.18609
24656921,0.993244,-0.0549505,0.0366493,0.0954091,-0.749641,-1.38672,8.59212
24669102,0.993228,-0.0558873,0.0367712,0.0949845,-0.682581,1.3963,14.7928
24690981,0.993041,-0.0615636,0.0324663,0.0950044,1.59987,-3.05844,8.37178
24703112,0.993322,-0.0562393,0.033063,0.0951604,0.217947,-1.00112,7.99337
24724921,0.993357,-0.0551216,0.0333454,0.0953517,-0.0598755,-0.285007,12.9032
24737102,0.993202,-0.0584432,0.0336352,0.0948864,1.12326,0.538879,10.6183
24758987,0.993259,-0.057935,0.0334063,0.0946796,-0.275427,-2.03098,7.3515
24780923,0.993232,-0.058878,0.0317797,0.0949418,-0.706531,0.55804,11.0829
24793091,0.993089,-0.0607721,0.0334337,0.0946773,1.03944,-1.12087,9.94291
24815000,0.993328,-0.058094,0.0292306,0.0952416,-1.13763,-1.96392,9.68665
24827100,0.993142,-0.0596146,0.031597,0.0954823,-0.0239502,-0.404758,9.04239
24848922,0.993192,-0.0581014,0.031785,0.0958283,0.411943,-0.60115,10.501
24861100,0.993182,-0.058243,0.0314441,0.0959596,-0.119751,-0.239502,12.1487
24884013,0.993087,-0.0604852,0.0295257,0.0961704,-0.208367,-1.75315,7.91673
24896113,0.993388,-0.0550699,0.0287696,0.0965399,0.146096,-0.910107,8.01492
24917921,0.99326,-0.0564715,0.0307558,0.0964308,1.03944,-0.890947,10.9776
24930116,0.993164,-0.0581458,0.0313342,0.096244,-0.0215552,-1.3005,8.81726
24951921,0.993477,-0.0532481,0.0281991,0.0968127,0.63947,-0.392783,8.5083
24964111,0.99335,-0.0562747,0.02837,0.096351,-0.289797,-0.0694556,11.6961
24985921,0.993183,-0.0598868,0.0287176,0.0957899,-0.177231,-0.208367,10.6518
24998111,0.993079,-0.0626369,0.0287204,0.0951056,0.246687,-1.31008,6.79346
25019922,0.993348,-0.0576283,0.0304228,0.0949413,-0.241897,-1.25739,11.1979
25041921,0.993194,-0.0621132,0.0294093,0.0940341,-0.342488,0.0526904,11.3105
25054141,0.99303,-0.0654941,0.0290922,0.0935679,-1.21667,-1.7316,6.91082
25075922,0.993458,-0.0588809,0.0261296,0.0942939,1.21906,-0.526904,10.489
25088112,0.993532,-0.0592773,0.0256665,0.0933842,-0.270637,0.529299,10.3932
25109922,0.993436,-0.0613219,0.0283861,0.092299,-1.83219,-0.735271,7.80416
25122112,0.993657,-0.0573987,0.0278043,0.0926219,0.438289,-1.03225,10.4387
25143922,0.993691,-0.0581545,0.0281814,0.0916592,0.696951,0.761616,10.2183
25156112,0.993731,-0.0584615,0.0272685,0.0913087,-1.16637,-0.821492,9.36811
25177946,0.993758,-0.0564658,0.0290027,0.0917405,0.241897,-0.661025,10.6063
25190111,0.993721,-0.0573662,0.0298112,0.0913198,0.409548,-0.821492,9.52139
25212921,0.993816,-0.0559788,0.028546,0.0915451,-1.17595,-0.330513,8.68074
25225111,0.993811,-0.0562054,0.0295222,0.0911596,-0.237107,0.105381,10.5872
25247921,0.993792,-0.0571739,0.0292428,0.0908485,-0.124541,-0.519719,11.617
25260113,0.99372,-0.0588183,0.0283427,0.0908673,0.543669,-0.912502,8.29754
25281921,0.993799,-0.0571429,0.0294037,0.0907434,0.395178,-0.182021,9.58606
25304932,0.993868,-0.0553269,0.0302636,0.0908263,-1.23823,-0.222737,12.5535
25317113,0.99387,-0.0559793,0.0299939,0.0904892,0.447869,-0.467029,9.77766
25338921,0.993737,-0.0586782,0.0310272,0.0898975,0.129331,-0.852627,7.33713
25351123,0.994011,-0.0520405,0.0304759,0.09113,0.526904,-0.890947,10.5776
25373921,0.993832,-0.0551559,0.0298099,0.091469,0.299377,0.828677,11.0829
25386111,0.99345,-0.0598399,0.0325871,0.0917279,-1.11368,-1.22386,6.42703
25407921,0.994021,-0.0495973,0.0263241,0.0936424,0.215552,-0.6251,10.0052
25420111,0.993888,-0.0524522,0.0242561,0.0940574,-1.01309,1.4921,12.8553
25441922,0.993551,-0.057377,0.0269631,0.0940107,0.244292,-1.57113,6.99944
25454111,0.994006,-0.0491204,0.0219398,0.0951715,1.21906,-0.792751,9.47589
25475946,0.99379,-0.0532786,0.0221901,0.0951308,-0.651445,1.11608,10.7261
25488111,0.993442,-0.0575408,0.0265851,0.0951631,0,-2.19384,8.39813
25509922,0.993677,-0.0536197,0.023654,0.095769,0.773591,-0.268242,8.75978
25522112,0.993635,-0.0526611,0.0252356,0.0963253,-1.14003,0.0598755,9.8519
25544936,0.993445,-0.0562999,0.025613,0.0961307,-0.203577,-0.584385,9.12621
25557111,0.993546,-0.0547022,0.0254035,0.096065,-0.512534,-0.617915,8.19934
25578922,0.993643,-0.0534087,0.0250501,0.0958814,-1.2526,-0.0311353,11.2147
25600946,0.993563,-0.0553627,0.0250028,0.095616,-0.347278,0.131726,10.4626
25613111,0.993559,-0.0563117,0.0250041,0.0950965,-0.143701,-0.728086,7.66765
25635921,0.993805,-0.0514616,0.0268872,0.094767,-1.21188,0.352068,12.8121
25648112,0.993762,-0.0538132,0.0269932,0.0938732,-0.342488,-0.59636,10.2615
25670921,0.993794,-0.0543169,0.0277561,0.0930159,-0.167651,-0.222737,8.03169
25683113,0.99394,-0.0514614,0.0293822,0.0925817,-0.229922,0.809517,12.2158
25704921,0.993891,-0.0538107,0.0292511,0.0918154,0.364043,-0.63468,9.8519
25717111,0.99394,-0.0533238,0.0296963,0.0914224,0.208367,0.0646655,7.98139
25738921,0.994081,-0.0503741,0.0308154,0.0911909,1.20709,0.711321,11.7464
25751111,0.994089,-0.0513478,0.0300796,0.0908106,0.0981958,1.03704,9.74892
25772964,0.99425,-0.0492132,0.0284616,0.0907452,-0.730481,-1.90644,8.01013
25785114,0.994204,-0.0487185,0.031136,0.0906435,-0.775986,1.13284,11.6051
25806921,0.994186,-0.0499725,0.0299684,0.0905524,0.510139,-0.356858,9.66988
25819111,0.994245,-0.0478366,0.0308703,0.0907532,-0.390388,0.514929,9.26991
25840950,0.994271,-0.0474304,0.0306149,0.0907665,0.519719,-0.349673,10.7309
25853410,0.994248,-0.0485104,0.0296735,0.0907628,-0.337698,-0.603545,9.62917
25875922,0.994232,-0.0475466,0.0305911,0.0911405,-0.445474,-0.0502954,9.20764
25888111,0.994248,-0.0472348,0.0298364,0.0913749,0.524509,-0.0622705,10.3573
25910921,0.994218,-0.0478034,0.0293419,0.0915652,-0.131726,-0.428709,9.9022
25923113,0.994174,-0.0475701,0.0301247,0.0919057,-0.486189,-0.342488,9.36093
25945921,0.994184,-0.0471332,0.0298366,0.0921199,-0.0670606,-0.174836,10.0076
25958113,0.994163,-0.0473783,0.0296084,0.092301,-0.349673,-0.354463,9.88304
25979922,0.994135,-0.0474225,0.0300356,0.0924357,-0.426313,-0.423918,9.49026
26001921,0.994142,-0.0469238,0.0298292,0.0926877,-0.0502954,-0.308958,9.90459
26014142,0.99414,-0.0470468,0.0296738,0.0926957,0.0311353,-0.392783,9.92136
26035922,0.994125,-0.0472938,0.0299796,0.0926267,-0.447869,-0.464634,9.58606
26048112,0.994145,-0.0469354,0.0299388,0.0926044,-0.282612,-0.519719,9.78963
26069922,0.99415,-0.0469973,0.0298906,0.0925416,-0.0622705,-0.426313,9.9501
26082112,0.994153,-0.0471084,0.0299705,0.0924197,-0.538879,-0.55325,9.7106
26103922,0.994165,-0.0471378,0.0300123,0.092271,-0.268242,-0.831072,9.82077
26116112,0.994174,-0.0474634,0.0299269,0.09203,-0.119751,-0.804727,9.74892
26137946,0.994199,-0.0474103,0.0299094,0.0917911,-0.258662,-0.838257,9.59085
26150111,0.994228,-0.0473022,0.0298706,0.0915496,-0.0766406,-0.785566,9.82316
26171922,0.994234,-0.0474151,0.0298623,0.0914289,-0.0766406,-0.737666,9.82077
26193922,0.994249,-0.047411,0.0298464,0.0912763,-0.205972,-0.756826,9.68665
26206111,0.994258,-0.0473478,0.0298672,0.0911988,-0.222737,-0.689766,9.79442
26227921,0.994266,-0.0475913,0.029959,0.0909506,-0.193997,-0.756826,9.7585
26240111,0.994282,-0.0475992,0.0299323,0.0907817,-0.0814307,-0.804727,9.71299
26262948,0.994303,-0.0475084,0.0298848,0.0906183,-0.229922,-0.792751,9.84711
26275111,0.994305,-0.0475932,0.029926,0.0905379,-0.138911,-0.740061,9.78245
26296922,0.994326,-0.0476392,0.0298681,0.0902969,-0.189207,-0.814307,9.70581
26309113,0.99435,-0.0475729,0.0298459,0.0900757,-0.215552,-0.720901,9.82077
26330921,0.994367,-0.0476911,0.0298798,0.0898111,-0.162861,-0.725691,9.78005
26343113,0.994381,-0.0476784,0.0298389,0.0896768,-0.141306,-0.797542,9.67946
26364921,0.994402,-0.0475902,0.0297928,0.0895064,-0.0910107,-0.799937,9.79442
26377111,0.994401,-0.0476842,0.0297996,0.089475,-0.122146,-0.747246,9.78963
26398922,0.994406,-0.0477421,0.0298681,0.089356,-0.258662,-0.730481,9.70341
26420921,0.994427,-0.0477117,0.0299558,0.0891102,-0.136516,-0.747246,9.76808
26433132,0.994443,-0.0477458,0.0299799,0.0889093,-0.268242,-0.730481,9.78245
26454921,0.994457,-0.0477979,0.0300343,0.0887008,-0.220342,-0.754431,9.6148
26467113,0.994469,-0.0477997,0.0299977,0.0885774,-0.191602,-0.771196,9.74173
26489922,0.994485,-0.0478711,0.030012,0.0883616,-0.182021,-0.795147,9.81837
26502111,0.994506,-0.0479031,0.0300469,0.0880947,-0.170046,-0.766406,9.73215
26523922,0.994526,-0.047852,0.0300671,0.0878828,-0.239502,-0.783171,9.73215
26536112,0.994543,-0.0478545,0.0300622,0.0876954,-0.217947,-0.799937,9.78245
26557946,0.994555,-0.0479128,0.0300571,0.0875341,-0.0646655,-0.819097,9.6603
26570111,0.994569,-0.0478489,0.0300007,0.087422,-0.0766406,-0.795147,9.68904
26591922,0.994569,-0.0477883,0.0299155,0.0874813,-0.0670606,-0.795147,9.8064
26604111,0.994558,-0.0479098,0.0300666,0.0874887,-0.158071,-0.905317,9.7106
26626921,0.994552,-0.048064,0.0302822,0.0874041,-0.366438,-1.08734,9.64354
26639113,0.994575,-0.0479212,0.0300648,0.0872938,-0.340093,-1.11129,9.70581
26660921,0.99458,-0.0481011,0.0301981,0.08709,-0.213157,-1.11129,9.74173
26683946,0.994571,-0.0483848,0.030419,0.0869583,-0.237107,-1.2981,9.55492
26696111,0.994592,-0.0481637,0.0302658,0.0868924,-0.320933,-1.41306,9.51421
26708412,0.994614,-0.0479183,0.0302779,0.0867759,-0.222737,-1.37235,9.77287
26731949,0.99465,-0.0476537,0.0300564,0.08658,-0.359253,-1.22386,9.78005
26744112,0.994671,-0.0475692,0.0299997,0.086409,-0.378413,-1.26697,9.84472
26766922,0.994577,-0.0490652,0.0314306,0.0861439,-0.246687,-1.6358,9.11424
26779111,0.994618,-0.0483968,0.0313167,0.0860948,-0.0766406,-1.11129,9.97165
26800946,0.994576,-0.0493145,0.0310783,0.0861477,-0.158071,-1.15679,9.55492
26813111,0.99457,-0.0490577,0.0310982,0.0863532,-0.191602,-1.56155,9.32261
26834922,0.99455,-0.0490327,0.0306216,0.0867635,-0.134121,-1.54479,9.98602
26857946,0.99449,-0.0496098,0.0306506,0.0871183,-0.277822,-1.33403,9.60282
26870111,0.994464,-0.0496952,0.0307145,0.087336,-0.273032,-1.20709,9.35135
26891922,0.994475,-0.049207,0.0302656,0.0876479,-0.308958,-1.33403,9.86627
26904112,0.99443,-0.0496646,0.0302667,0.0878975,-0.136516,-1.42504,9.82556
26925921,0.994406,-0.0496652,0.0301621,0.0882106,0.131726,-1.12805,9.57887
26938113,0.99438,-0.049414,0.0299828,0.0886984,0.124541,-1.1065,9.81358
26959921,0.994312,-0.0495841,0.0302438,0.0892821,0.239502,-1.08494,9.79682
26972140,0.994235,-0.049707,0.0303545,0.0900203,-0.0622705,-1.13524,9.35374
26993922,0.994196,-0.0488628,0.0303883,0.0908985,-0.198787,-0.950823,9.97884
27006107,0.994077,-0.0496673,0.0307738,0.0916307,-0.349673,-0.771196,10.0914
27027921,0.993986,-0.0498372,0.0309717,0.0924565,-0.6251,-1.15919,9.5645
27040108,0.993942,-0.0496352,0.0306362,0.0931544,-0.407153,-1.00591,9.85669
27061922,0.993884,-0.0502516,0.0306233,0.0934478,-0.531694,-1.14003,9.95968
27083921,0.993843,-0.0505014,0.0305195,0.0937801,-0.55325,-1.22865,9.09029
27096112,0.993832,-0.05027,0.030828,0.093915,-0.261057,-0.950823,9.81598
27117922,0.993812,-0.0506728,0.0307628,0.0939321,-0.352068,-1.21906,9.49505
27130111,0.993867,-0.0498486,0.0305554,0.0938622,-0.641865,-1.01788,9.78005
27151958,0.99384,-0.0509131,0.0308596,0.0934765,-0.395178,-1.4418,10.1225
27164111,0.993782,-0.0523038,0.0321156,0.0929004,-0.126936,-1.49449,9.10945
27185922,0.993908,-0.051125,0.031332,0.0924767,-0.440684,-1.28373,9.00646
27198111,0.99399,-0.0510357,0.0314454,0.0915966,-0.65384,-0.603545,11.0973
27219951,0.993968,-0.052863,0.0321883,0.0905427,-0.514929,-1.43701,9.61959
27232111,0.994153,-0.0516004,0.0311986,0.0895751,-0.457449,-1.4442,8.64002
27253922,0.994387,-0.0462398,0.0332675,0.0891594,-0.155676,-0.294587,12.4912
27276946,0.99429,-0.0513586,0.0325812,0.0876796,1.33642,-0.847837,9.42799
27289111,0.994357,-0.0513483,0.0347275,0.0860871,-1.45617,-3.05365,6.85813
27310921,0.994562,-0.0456044,0.0381822,0.0854922,-0.0718506,-2.13875,12.8864
27323112,0.994582,-0.0484055,0.0371397,0.0841682,0.541274,-0.584385,9.82316
27345921,0.994601,-0.0487388,0.0384728,0.0831433,-0.924478,-0.728086,8.3167
27358113,0.99469,-0.0474294,0.0384384,0.0828554,-0.277822,-1.22386,10.0914
27379921,0.994828,-0.0470108,0.0362501,0.0824163,0.780776,-1.47054,10.2519
27392147,0.994802,-0.0478699,0.0372329,0.0817977,-0.950823,-1.02267,10.2471
27413922,0.99496,-0.0467873,0.0351121,0.0814372,0.162861,-1.67172,8.86995
27426107,0.994997,-0.0468124,0.0354377,0.080832,-0.0934058,-0.955613,10.9728
27447921,0.994955,-0.0487318,0.0361801,0.079877,0.826282,-1.24062,9.50463
27460108,0.995101,-0.047186,0.0355442,0.0792697,-0.61073,-1.42025,8.30472
27481922,0.995129,-0.047433,0.0357902,0.0786614,-0.467029,-0.411943,11.4159
27494111,0.995052,-0.0493608,0.0372141,0.077779,0.292192,-1.02267,9.41841
27515946,0.995094,-0.0492653,0.0378472,0.0769995,-0.914898,-1.08255,9.02802
27537921,0.995206,-0.0467808,0.0386,0.0767303,-0.217947,-1.4418,11.4566
27550113,0.995088,-0.0496427,0.0391745,0.076158,0.696951,-0.404758,9.52379
27572963,0.995233,-0.0475626,0.0383147,0.0760395,-0.622705,-1.3939,7.29163
27585111,0.99505,-0.0532529,0.0377461,0.0749356,-0.299377,-0.955613,9.57648
27606922,0.994671,-0.0574415,0.0428855,0.0740992,-0.740061,-1.16877,7.96223
27619112,0.995333,-0.050862,0.0348597,0.0742271,-0.929268,-1.36995,9.25075
27640946,0.995299,-0.0524994,0.0363143,0.0728381,-1.13284,0.737666,10.4483
27653111,0.995125,-0.0561757,0.0377296,0.0717363,-0.373623,-2.61536,8.95138
27674922,0.995551,-0.0514945,0.0325749,0.0718776,1.0562,-0.766406,10.2471
27687111,0.995634,-0.0499864,0.0343254,0.0709682,-0.787961,1.08255,10.4722
27709921,0.995666,-0.0514176,0.0331432,0.0700529,-0.215552,-1.69567,8.88911
27722113,0.995729,-0.0500727,0.0343832,0.0695292,0.126936,-0.170046,13.3822
27743921,0.995421,-0.0560809,0.0360603,0.0684998,0.450264,-1.47533,7.40898
27756113,0.995994,-0.0468113,0.0330624,0.0686358,-0.524509,-0.699346,9.38967
27777922,0.995471,-0.0581418,0.033179,0.0675067,0.232317,0.843047,9.58127
27790111,0.99524,-0.0604633,0.0364716,0.0671713,-0.150886,-3.13269,5.11456
27811958,0.996005,-0.049365,0.0300006,0.0680925,0.383203,-0.452659,13.7558
27833921,0.995765,-0.0528368,0.0317584,0.0681991,-0.455054,1.57832,10.2567
27846107,0.995528,-0.0570212,0.0346683,0.0668576,-0.0622705,-0.0838257,6.245
27867921,0.995834,-0.0482675,0.0376568,0.0675841,0.737666,-1.91123,12.7259
27880111,0.995627,-0.0525868,0.0373641,0.0675675,-0.886157,-0.0646655,9.75371
27901922,0.995362,-0.05552,0.0408911,0.067084,-1.19272,-0.210762,7.43772
27914111,0.995638,-0.0528932,0.0369982,0.0673629,-0.361648,-1.41067,9.68425
27935950,0.995614,-0.0533106,0.0368662,0.0674592,-0.502954,0.479004,10.01
27948111,0.995238,-0.0577107,0.0409866,0.0670146,-0.182021,-1.33403,7.27486
27969922,0.995836,-0.0497982,0.0339717,0.0683916,-0.205972,-1.99505,8.85558
27982112,0.995823,-0.0503378,0.0333392,0.068488,-0.716111,1.85375,11.4781
28004936,0.995277,-0.0555694,0.0419675,0.0676309,0.471819,-2.14594,6.5827
28026921,0.995649,-0.0501685,0.0393002,0.0679777,-1.49928,-1.09452,6.81023
28039113,0.995625,-0.0521574,0.0378803,0.0676494,-2.24653,-0.0239502,16.134
28060946,0.99529,-0.0591669,0.0373633,0.0670948,0.419128,-0.59157,9.05915
28073111,0.995796,-0.0532122,0.0326951,0.0670109,0.950823,-0.56283,7.19822
28094922,0.995599,-0.0577078,0.0330189,0.0660496,0.198787,-1.35798,11.1261
28107112,0.995527,-0.0580053,0.0342844,0.066232,0.0670606,-1.9735,8.84839
28128921,0.995645,-0.0569236,0.0326259,0.0662267,1.28373,0.0958008,9.85669
28141113,0.995612,-0.0579842,0.0332118,0.0655136,-0.670605,-1.61424,8.81726
28162921,0.995622,-0.0567358,0.0347598,0.0656525,-0.826282,-0.917293,9.76568
28175111,0.995691,-0.0568217,0.0326737,0.0656019,0.917293,-0.754431,9.61001
28196922,0.995663,-0.0571604,0.0334986,0.0653135,-1.3005,-0.759221,9.68186
28209111,0.995649,-0.0567262,0.0345814,0.0653357,-0.320933,-0.821492,10.6926
28230922,0.995592,-0.0591586,0.0328626,0.064933,-0.0550855,-1.19032,8.75259
28253923,0.995757,-0.0563597,0.0325099,0.0650786,-0.356858,-1.14242,9.80879
28266111,0.995795,-0.0553165,0.0328041,0.0652425,0.512534,-0.349673,11.4278
28287921,0.995746,-0.056633,0.0313175,0.0655839,0.280217,-0.799937,8.4101
28300109,0.995937,-0.0531086,0.0299432,0.0662743,1.23583,-1.51126,9.54774
28321922,0.995836,-0.0536104,0.0312136,0.0668013,0.00479004,-0.828677,10.2064
28334111,0.995583,-0.0558914,0.0350875,0.0667792,0.0934058,-0.632285,8.458
28355946,0.995823,-0.0509683,0.0346371,0.0673664,-0.0790356,-0.60594,11.0422
28368111,0.995614,-0.0537568,0.0355586,0.0678165,-0.471819,0.237107,9.40883
28389922,0.995572,-0.0542684,0.0359667,0.0678059,-0.790356,-0.780776,6.13483
28402112,0.995756,-0.0473733,0.0393341,0.0683989,-2.19863,-0.122146,15.6981
28424936,0.99552,-0.0530148,0.0386189,0.0680956,0.574805,-1.18553,9.03281
28437111,0.995727,-0.0486652,0.0383288,0.0684889,-0.445474,-0.227527,7.79458
28458922,0.995474,-0.0543823,0.0370556,0.0685697,-1.13763,0.670605,12.4745
28471140,0.995413,-0.0554599,0.0360835,0.0691072,0.603545,-1.82021,7.65088
28493921,0.995604,-0.0518717,0.0356529,0.0693601,0.352068,-0.299377,10.7165
28506111,0.995514,-0.0529582,0.0372759,0.0689751,0.0742456,-0.574805,10.5441
28527921,0.995602,-0.0514153,0.0366586,0.0692045,-0.754431,-0.57241,9.39685
28549921,0.995533,-0.0525118,0.0375189,0.0689121,-0.421523,0.191602,9.67228
28562113,0.99551,-0.0527304,0.0388878,0.0683131,-0.668211,-0.64426,8.00774
28583921,0.99561,-0.0485445,0.0416643,0.0683177,-0.907712,0.167651,12.963
28596111,0.995459,-0.0525521,0.0427352,0.0668789,0.57241,-1.00591,9.2268
28617922,0.99568,-0.0500561,0.04197,0.0659931,-1.91841,-0.56283,6.80065
28630111,0.99566,-0.0513363,0.041734,0.0654539,-1.51126,1.90165,12.9295
28651961,0.995542,-0.0544934,0.0419964,0.0645247,1.06339,-0.637075,9.41601
28664111,0.99584,-0.0511286,0.0408161,0.063418,-0.55804,-0.455054,8.83163
28685922,0.995819,-0.0524526,0.0414286,0.0622685,-0.428709,-0.419128,9.55492
28698111,0.995895,-0.051454,0.0421675,0.06138,-0.328118,0.349673,9.81119
28719939,0.995993,-0.0516899,0.0407725,0.0605307,0.380808,-0.0311353,9.82556
28741922,0.996029,-0.0516947,0.0410666,0.0597254,-0.560435,-0.603545,10.5752
28754107,0.996046,-0.0522917,0.0408973,0.0590407,-0.0694556,-0.325723,9.6603
28775946,0.996043,-0.0526161,0.0416216,0.0582903,0.728086,0.385598,9.65791
28788111,0.996142,-0.0519752,0.0404794,0.0579801,-0.239502,0.107776,10.077
28809922,0.996183,-0.051779,0.0398827,0.0578639,-0.256267,-0.258662,10.2136
28822112,0.996157,-0.0524693,0.0400542,0.0575649,0.479004,-0.728086,10.0315
28844925,0.99624,-0.0519955,0.038868,0.057367,-0.555645,-0.313748,9.39446
28857113,0.996524,-0.0476869,0.0371967,0.0572955,0.440684,-1.41067,11.5045
28878921,0.996429,-0.0491135,0.0378591,0.0573116,0.126936,0.122146,11.3799
28891133,0.996368,-0.0504827,0.0382386,0.0569304,0.100591,-0.613125,8.2185
28914921,0.996493,-0.0471718,0.0391537,0.0569574,-0.349673,0.531694,10.4554
28927111,0.99647,-0.0478982,0.0392826,0.0566523,0.0479004,-0.383203,10.386
28948921,0.996499,-0.0482164,0.0385788,0.0563666,-0.167651,-0.435894,9.1789
28961111,0.996522,-0.047279,0.0391681,0.0563386,-0.376018,0.0287402,10.1609
28982922,0.996509,-0.0478257,0.0390125,0.056225,0.117356,0.277822,9.95968
28995111,0.996526,-0.0479084,0.0387186,0.0560511,-0.268242,-0.311353,9.39446
29016946,0.996563,-0.0471462,0.0388482,0.0559511,-0.565225,0.0910107,10.0052
29029111,0.996543,-0.0476482,0.0391015,0.0557062,-0.102986,0.148491,9.92615
29050922,0.996562,-0.047736,0.0389131,0.0554268,-0.287402,-0.0574805,9.36093
29073961,0.996621,-0.0469071,0.0387174,0.0552073,-0.354463,-0.210762,9.88304
29086111,0.996608,-0.0473336,0.0388937,0.054942,-0.256267,-0.205972,9.93573
29107922,0.996621,-0.0473261,0.0388756,0.0547343,-0.220342,-0.411943,9.54774
29120112,0.996651,-0.0469133,0.0386504,0.0546957,-0.0383203,-0.306563,9.94291
29142946,0.996637,-0.0471821,0.0386775,0.0547023,-0.105381,-0.385598,9.90938
29155111,0.996624,-0.0472201,0.0387267,0.0548826,-0.0838257,-0.486189,9.52379
29176922,0.996646,-0.0468315,0.0384996,0.0549718,-0.0263452,-0.332908,9.92136
29189117,0.996628,-0.0469875,0.038569,0.0551038,-0.332908,-0.361648,9.88783
29211921,0.996621,-0.0469757,0.0386361,0.0552004,-0.239502,-0.543669,9.64114
29224113,0.996644,-0.0467512,0.038338,0.0551758,-0.244292,-0.783171,10.0627
29245921,0.996617,-0.0473398,0.0385678,0.0550035,-0.512534,-0.864602,9.74173
29258113,0.996631,-0.0472283,0.0385376,0.0548792,-0.253872,-0.840652,9.48307
29279922,0.996669,-0.0468594,0.0382581,0.0546891,-0.193997,-0.809517,10.022
29292111,0.996652,-0.0473162,0.038491,0.0544476,-0.277822,-0.783171,9.77287
29313961,0.996666,-0.0471947,0.0385527,0.0542525,-0.193997,-0.823887,9.52379
29326111,0.996698,-0.046964,0.0383797,0.0539843,-0.313748,-0.799937,9.92136
29347922,0.996689,-0.0473058,0.0385897,0.0536984,-0.316143,-0.823887,9.74413
29370922,0.996724,-0.0470813,0.0384565,0.0533451,-0.119751,-0.835862,9.61001
29383113,0.99675,-0.0469867,0.0384416,0.0529525,-0.256267,-0.838257,9.93334
29404921,0.996742,-0.0474255,0.0387638,0.0524779,-0.349673,-0.958008,9.72736
29417111,0.996771,-0.0471973,0.0387401,0.0521381,-0.328118,-1.03944,9.48068
29438946,0.996804,-0.0470378,0.0387073,0.0516841,-0.292192,-1.04902,9.9501
29451111,0.99681,-0.0474114,0.0388467,0.0511099,-0.239502,-1.11608,9.73215
29472922,0.996841,-0.0472968,0.0387594,0.0506862,-0.215552,-1.23823,9.59085
29485112,0.996866,-0.0472522,0.0387172,0.0502655,-0.122146,-1.2981,9.8064
29506921,0.996876,-0.0474608,0.0388384,0.0497723,-0.270637,-1.25978,9.75371
29519113,0.996897,-0.04748,0.0389478,0.0492392,-0.404758,-1.32684,9.67228
29540921,0.996927,-0.0475145,0.039028,0.0485312,-0.347278,-1.30529,9.81598
29553141,0.996944,-0.0477895,0.0392221,0.0477459,-0.337698,-1.43941,9.68904
29574921,0.996965,-0.0481733,0.0392627,0.0468929,-0.155676,-1.60706,9.68186
29596922,0.997034,-0.0476769,0.0388479,0.0462745,-0.193997,-1.66693,9.519
29609114,0.997095,-0.04678,0.0390136,0.0457309,-0.502954,-1.01309,11.1524
29630921,0.99706,-0.0482178,0.0392184,0.0448033,0.00479004,-1.42743,9.82795
29643113,0.997159,-0.0478183,0.0381366,0.0439736,-0.373623,-1.80105,9.29626
29664921,0.997186,-0.047589,0.0386455,0.0431549,-0.507744,-1.30289,10.3094
29677111,0.997157,-0.0486608,0.0390741,0.042234,-0.155676,-1.20469,9.78245
29698922,0.997228,-0.048644,0.03843,0.041139,-0.366438,-1.31008,9.09268
29711111,0.997337,-0.047517,0.0380889,0.0401204,-0.459844,-1.00591,10.3429
29732960,0.997307,-0.0485795,0.0389008,0.0388066,-0.0886157,-1.07536,9.93812
29745111,0.997357,-0.0485622,0.0388249,0.0375984,-0.289797,-1.16158,9.00167
29766922,0.99744,-0.0470933,0.0395073,0.0365441,-0.114961,-1.24302,10.7261
29789922,0.997384,-0.0490406,0.0396215,0.0353643,0.0838257,-1.1544,10.0124
29802112,0.997383,-0.0496656,0.0398307,0.0342525,-0.0239502,-1.2981,8.56817
29814410,0.997504,-0.0481883,0.0394127,0.0333249,-0.222737,-1.28613,9.93573
29837921,0.997478,-0.0493643,0.0395818,0.032154,-0.332908,-1.18553,10.2495
29850113,0.997443,-0.0502073,0.0403026,0.0310058,-0.172441,-1.37714,8.80289
29872921,0.997592,-0.0485803,0.0391014,0.030358,0.112566,-1.0107,10.3501
29885108,0.997498,-0.0499309,0.0405038,0.0293836,-0.364043,-0.869392,9.90699
29906921,0.997566,-0.0496525,0.039805,0.0285153,0.00239502,-1.46575,8.69271
29919109,0.997628,-0.0483551,0.0404206,0.0276927,-0.198787,-1.06099,10.4411
29940922,0.99758,-0.0492305,0.0410489,0.0269248,-0.143701,-0.852627,9.88304
29962921,0.997602,-0.0492594,0.0409667,0.0261952,-0.222737,-0.869392,8.86037
29975110,0.997681,-0.0471398,0.0418943,0.0256127,-0.934058,-0.883762,11.1165
29996921,0.99769,-0.0483743,0.0407654,0.0247656,0.0526904,-1.60706,10.5728
30009111,0.997731,-0.0487448,0.0393064,0.0247317,1.53281,0.0143701,9.83514
30030922,0.997704,-0.0486944,0.0400392,0.0247296,0.917293,1.12087,10.7021
30043113,0.997691,-0.0509042,0.0373782,0.0249956,1.09931,-1.06578,9.69862
30064921,0.997672,-0.0503888,0.0387392,0.0247307,0.548459,-1.42264,9.92615
30077111,0.997554,-0.0523723,0.0390607,0.0248665,-0.486189,-0.0670606,9.69862
30098946,0.997459,-0.0536066,0.0394237,0.0254386,0.675396,1.07536,11.5955
30111111,0.997432,-0.0554131,0.0369977,0.0262492,2.09564,-1.85375,9.12382
30132922,0.997747,-0.0511084,0.033591,0.0275689,0.296982,-0.936453,10.1537
30154946,0.997509,-0.0534205,0.0360771,0.0286515,-0.474214,-0.929268,10.1106
30167111,0.997232,-0.0554624,0.0397353,0.029545,0.773591,-1.27415,8.88911
30188922,0.997471,-0.0524289,0.0370629,0.0304952,0.728086,-1.60706,11.1237
30201112,0.997381,-0.0530661,0.0377785,0.0314206,-2.22976,-0.354463,9.94052
30223946,0.998043,-0.0450068,0.0289742,0.0323328,-0.0359253,-1.38193,7.63891
30236111,0.998117,-0.0399305,0.0329475,0.0329034,-4.41642,2.3543,12.3523
30257922,0.997766,-0.0462831,0.0363041,0.031675,0.941243,-2.3543,8.95856
30270115,0.99791,-0.043251,0.0359148,0.0318721,-1.51844,-2.18186,7.67723
30292921,0.998054,-0.0403874,0.0358183,0.0312019,1.27894,-1.14242,10.3094
30305108,0.998055,-0.041203,0.0357703,0.030155,-0.565225,0.0287402,9.35614
30326921,0.997915,-0.0424585,0.0384217,0.0297779,-2.07888,-1.38193,8.09635
30339109,0.998179,-0.0354077,0.0392379,0.0290622,2.13157,-3.16143,12.1559
30360922,0.998017,-0.036604,0.0432244,0.0274653,-2.60578,-0.675396,8.62326
30373111,0.998163,-0.0338907,0.0428462,0.0262097,-1.96871,-1.07536,6.03424
30394946,0.99813,-0.0339404,0.0442493,0.0250245,-0.797542,1.29331,16.5412
30416921,0.998107,-0.0410638,0.0391801,0.0237042,1.46096,-4.3757,7.89278
30429113,0.99842,-0.033621,0.0386748,0.023037,-0.282612,-1.88249,7.0162
30451940,0.998359,-0.0360001,0.0389469,0.021611,0.941243,0.0766406,10.4794
30464111,0.998146,-0.0417019,0.0393679,0.0203869,0.301772,0.146096,7.84488
30485921,0.998167,-0.0395912,0.0410534,0.0202556,-0.835862,-2.47645,7.48083
30498111,0.998296,-0.0381485,0.0392072,0.0202884,-0.316143,-0.744851,10.695
30519946,0.998198,-0.0388458,0.0413229,0.0195925,0.689766,0.340093,9.40164
30532111,0.998282,-0.0379194,0.0400848,0.0196903,-1.40588,-1.67412,9.64114
30553922,0.99822,-0.0376241,0.0413054,0.0208464,-0.811912,0.119751,8.71906
30566111,0.998189,-0.0362395,0.0432252,0.0209096,0.337698,-0.205972,9.6603
30588921,0.998234,-0.0355708,0.0427785,0.0208412,-0.0311353,-1.69807,11.0422
30601113,0.998202,-0.0357636,0.0429401,0.0216563,-0.61073,-1.03225,10.0267
30622921,0.998224,-0.0345248,0.0431587,0.0222476,1.04183,-0.775986,7.7874
30635113,0.998229,-0.0331058,0.0436736,0.023146,-0.404758,0.993933,12.4146
30656922,0.997923,-0.0380015,0.0462472,0.023797,0.323328,0.311353,8.78852
30678921,0.997799,-0.0385255,0.0480961,0.0244774,-1.70286,-1.51844,6.85094
30691138,0.99777,-0.0407554,0.0462582,0.0255682,-1.4442,-1.58311,13.5714
30704112,0.997395,-0.0461777,0.0490915,0.0256923,-1.4442,2.5962,8.53225
30725921,0.99801,-0.0390193,0.0421748,0.0259818,-0.337698,1.53521,7.68681
30747921,0.997655,-0.046886,0.0429053,0.0253892,-1.18793,-1.52084,8.51548
30760111,0.997444,-0.0482812,0.0463336,0.0250543,-0.524509,-1.42743,5.65104
30781922,0.997808,-0.0427038,0.0439019,0.0250569,-1.52802,2.25371,17.9638
30794111,0.997023,-0.053945,0.0495363,0.0241242,-1.57592,-1.76273,6.62102
30815946,0.998012,-0.0409958,0.0416849,0.0235499,-1.7316,-2.48843,5.69415
30828111,0.998257,-0.0380573,0.0394881,0.0218129,0.416733,-0.306563,16.0718
30849922,0.997761,-0.0439386,0.0467833,0.0188286,-0.598755,-1.05141,6.60186
30862112,0.997925,-0.0409305,0.0465677,0.0173837,1.18314,1.03704,6.0558
30884932,0.998571,-0.0312567,0.0401488,0.0163364,2.71835,-0.208367,14.994
30897111,0.998287,-0.0391763,0.0405303,0.0156705,-0.330513,2.36867,9.87585
30918922,0.998093,-0.0390002,0.0457016,0.01419,0.749641,0.131726,5.07624
30931139,0.998217,-0.0302935,0.0495669,0.0137015,0.452659,0.00479004,15.5784
30953921,0.998161,-0.0349972,0.0478338,0.012756,-1.2526,-0.864602,10.2303
30966111,0.997941,-0.0361561,0.0516395,0.0118523,-1.50407,0.320933,6.14441
30988921,0.997927,-0.0318991,0.0547384,0.011263,-0.00239502,1.20469,12.9511
31001108,0.998009,-0.0350117,0.0515661,0.00962338,-0.301772,-1.45378,11.0782
31022922,0.997945,-0.0344388,0.0531821,0.00952155,-2.02619,0.59636,8.34065
31044921,0.997962,-0.0320153,0.054471,0.00894313,1.62382,0.57241,11.0662
31057112,0.997966,-0.0336701,0.0535901,0.0075808,-0.673001,-0.364043,10.9967
31078922,0.997954,-0.0336088,0.0538898,0.00739034,-1.16158,0.0958008,8.71427
31091111,0.998037,-0.0323268,0.0532151,0.00666862,1.74597,-0.174836,10.3429
31112958,0.998031,-0.0337842,0.0525122,0.00598311,-1.03225,0.0766406,10.5393
31125111,0.998005,-0.0341336,0.0527909,0.00585695,-0.701741,-0.467029,8.61128
31146922,0.998067,-0.0328412,0.0524638,0.00554008,0.756826,-0.490979,10.0986
31159112,0.99805,-0.0341561,0.0519858,0.00523822,-0.256267,-0.364043,10.4626
31180946,0.997995,-0.0350548,0.0524425,0.00521542,-0.61073,-0.866997,8.96575
31193111,0.998052,-0.0339058,0.0521065,0.00519321,0.217947,-0.878972,9.73934
31214922,0.998046,-0.0345194,0.0518467,0.00493185,0.0479004,-0.814307,10.2255
31236946,0.998004,-0.0352024,0.052203,0.00480214,-0.665815,-0.900527,9.20285
31249111,0.998035,-0.0343358,0.0521932,0.00486753,-0.198787,-0.809517,9.65072
31270922,0.998032,-0.0346838,0.0520439,0.00457759,0.107776,-0.835862,10.2183
31283112,0.998005,-0.0352717,0.0521885,0.00428054,-0.778381,-0.938848,9.35853
31304921,0.998035,-0.034587,0.0520818,0.00420142,-0.289797,-0.814307,9.59324
31317113,0.99804,-0.0347224,0.0519108,0.00385793,0.119751,-0.754431,10.1393
31338921,0.998018,-0.0352698,0.0519956,0.00353335,-0.380808,-0.847837,9.57169
31351138,0.998049,-0.0347032,0.0517958,0.00337077,-0.316143,-0.773591,9.65072
31373921,0.99805,-0.0347415,0.0517634,0.00303029,-0.186812,-0.742456,10.0483
31386111,0.998031,-0.0352422,0.0518178,0.00257148,-0.282612,-0.838257,9.6603
31407921,0.998054,-0.0349531,0.0515909,0.00225381,-0.385598,-0.797542,9.64593
31420108,0.998056,-0.0349733,0.0515488,0.00189892,-0.0958008,-0.713716,9.97884
31441922,0.998035,-0.03542,0.0516682,0.00164121,-0.0934058,-0.840652,9.69144
31463921,0.998058,-0.035215,0.0513688,0.00135559,-0.299377,-0.838257,9.61001
31476112,0.99806,-0.0351942,0.0513513,0.00110835,-0.196392,-0.816702,9.92854
31497922,0.998034,-0.0356426,0.0515413,0.00081538,-0.160466,-0.864602,9.70581
31510111,0.998048,-0.0355099,0.0513736,0.000465494,-0.414338,-0.862207,9.57887
31531953,0.998055,-0.0354184,0.0513019,1.75694e-05,-0.474214,-0.828677,9.85669
31544111,0.998037,-0.035711,0.0514435,-0.00059981,-0.347278,-0.804727,9.74652
31565922,0.998043,-0.0356586,0.0513555,-0.00146047,-0.450264,-0.831072,9.65791
31578111,0.998041,-0.0356548,0.0513534,-0.00241385,-0.423918,-0.850232,9.8543
31599951,0.998014,-0.0359394,0.051607,-0.00362846,-0.490979,-0.819097,9.68904
31612111,0.998012,-0.0358313,0.0515866,-0.00516829,-0.598755,-0.795147,9.64833
31633922,0.997996,-0.0358062,0.0516989,-0.00696522,-0.766406,-0.65384,9.89262
31656922,0.997939,-0.0362272,0.0521541,-0.00920703,-0.819097,-0.799937,9.75131
31669108,0.997888,-0.0363987,0.0524657,-0.0119262,-0.773591,-0.835862,9.59085
31690921,0.997834,-0.036484,0.0526696,-0.0149286,-0.766406,-0.792751,9.72257
31703111,0.99775,-0.0367447,0.0529743,-0.0184113,-0.936453,-0.732876,9.72257
31724948,0.997655,-0.0367881,0.0532024,-0.0223601,-1.02986,-0.792751,9.7106
31737111,0.99754,-0.036925,0.0532066,-0.0268189,-0.809517,-0.63947,9.82795
31758922,0.997374,-0.0372969,0.0533562,-0.0317301,-0.819097,-0.780776,9.78484
31771119,0.997178,-0.0375689,0.0534884,-0.0369383,-0.864602,-0.785566,9.66509
31792921,0.996946,-0.0377116,0.0535158,-0.0425758,-0.725691,-0.737666,9.77526
31805108,0.996647,-0.0380288,0.0536924,-0.0486358,-0.742456,-0.790356,9.72497
31826921,0.996298,-0.0382463,0.0537949,-0.0550818,-0.62989,-0.732876,9.69383
31839113,0.995894,-0.0382727,0.053921,-0.0618367,-0.59636,-0.720901,9.84951
31860922,0.995422,-0.0383489,0.0541061,-0.068823,-0.696951,-0.675396,9.90699
31873412,0.994902,-0.0385305,0.0539303,-0.0760011,-0.555645,-0.684976,9.65072
31896946,0.994311,-0.03865,0.0535671,-0.0835592,-0.61073,-0.543669,9.64593
31909111,0.993583,-0.0387642,0.0542779,-0.0913454,-0.294587,-0.804727,9.79921
31930922,0.992781,-0.0390118,0.0545849,-0.0994212,-0.189207,-0.677791,9.79682
31943112,0.991885,-0.0393865,0.0550775,-0.107603,-0.840652,-0.651445,9.69144
31964921,0.990925,-0.0393807,0.055639,-0.115851,-0.165256,-0.488584,9.69144
31986922,0.989892,-0.0397,0.055669,-0.124254,-0.0287402,-0.617915,9.95249
31999111,0.988784,-0.0401696,0.0560453,-0.132482,-0.780776,-0.63947,9.72018
32020946,0.987648,-0.0403136,0.0561808,-0.140602,-0.0263452,-0.689766,9.49744
32033111,0.986446,-0.040411,0.0558145,-0.148917,-0.0455054,-0.550855,9.84951
32054922,0.985131,-0.0408231,0.0562722,-0.157114,-0.392783,-0.670605,9.8519
32067112,0.98376,-0.0410855,0.05652,-0.165328,0.153281,-0.692161,9.53816
32088921,0.982364,-0.0411197,0.0563326,-0.173486,-0.153281,-0.60594,9.80161
32101113,0.980856,-0.0415081,0.0567197,-0.181608,-0.313748,-0.589175,9.86867
32122921,0.979282,-0.0418876,0.0569705,-0.189756,-0.170046,-0.730481,9.61001
32135111,0.977654,-0.0417744,0.0570584,-0.197969,-0.270637,-0.62031,9.78484
32156922,0.975889,-0.0420926,0.0574161,-0.206331,-0.165256,-0.63468,9.89262
32178921,0.973996,-0.0424694,0.0578893,-0.214886,-0.493374,-0.632285,9.61001
32191133,0.972017,-0.0424593,0.0583121,-0.223561,-0.617915,-0.701741,9.65312
32213921,0.969901,-0.0425753,0.0586332,-0.23247,-0.55325,-0.617915,9.79921
32226111,0.967599,-0.0427573,0.0591534,-0.241711,-0.840652,-0.277822,9.58366
32247921,0.965174,-0.0426043,0.0592911,-0.251215,-0.955613,-0.603545,9.88543
32260111,0.962519,-0.0432296,0.0597002,-0.261005,-0.63947,-0.56762,9.92615
32281922,0.959748,-0.0434995,0.0599266,-0.270924,-0.524509,-0.479004,9.57887
32294111,0.956819,-0.0437188,0.0598815,-0.281069,-0.59157,-0.438289,9.80879
32315946,0.953676,-0.0441826,0.060143,-0.291433,-0.565225,-0.488584,9.81358
32328111,0.950357,-0.0446367,0.0604584,-0.301952,-0.299377,-0.637075,9.63396
32349922,0.946911,-0.0447177,0.060275,-0.312614,-0.457449,-0.438289,9.72497
32362112,0.943283,-0.0450606,0.0605036,-0.323306,-0.462239,-0.447869,9.81119
32384934,0.939448,-0.0454046,0.0607998,-0.334186,-0.246687,-0.61552,9.57408
32397111,0.935469,-0.04543,0.0607229,-0.345176,-0.416733,-0.560435,9.76568
32418922,0.931274,-0.0456047,0.0609318,-0.356282,-0.471819,-0.399968,9.93334
32440946,0.926856,-0.0459075,0.0612668,-0.367528,-0.550855,-0.455054,9.66749
32453111,0.92223,-0.0459527,0.061136,-0.379001,-0.58199,-0.431104,9.71539
32474922,0.917419,-0.0463054,0.0612189,-0.390449,-0.349673,-0.471819,9.83514
32487112,0.912394,-0.0465773,0.0612481,-0.402015,-0.215552,-0.464634,9.65312
32508921,0.907219,-0.046561,0.0608857,-0.413618,-0.0886157,-0.356858,9.84711
32521113,0.90188,-0.0468316,0.060854,-0.425107,-0.0886157,-0.325723,10.0339
32542921,0.896353,-0.0471142,0.0609734,-0.436594,-0.0526904,-0.342488,9.82077
32555111,0.890774,-0.047342,0.0608425,-0.44786,0.0407153,-0.447869,9.76808
32576922,0.885113,-0.0476282,0.0608677,-0.458913,0.0838257,-0.476609,9.74892
32589111,0.879355,-0.0477881,0.0607879,-0.469847,0.277822,-0.502954,9.75131
32610922,0.873547,-0.0478946,0.0608801,-0.480536,0.227527,-0.471819,9.87346
32633922,0.867723,-0.0482412,0.0612176,-0.490899,0.158071,-0.692161,9.61959
32646112,0.861869,-0.048238,0.0611078,-0.50112,-0.0119751,-0.720901,9.54055
32667921,0.856065,-0.0480889,0.0604921,-0.511058,0.0431104,-0.526904,9.77766
32680111,0.850243,-0.0481768,0.0601807,-0.520716,0.347278,-0.433499,10.0339
32701922,0.844384,-0.0483822,0.0601402,-0.530149,0.395178,-0.364043,9.82077
32714111,0.838631,-0.0484412,0.059772,-0.539239,0.495769,-0.397573,9.87346
32735946,0.832913,-0.0486094,0.0598644,-0.548005,0.431104,-0.490979,10.0172
32748111,0.827269,-0.0487879,0.0600972,-0.556448,0.275427,-0.589175,9.67946
32769922,0.821846,-0.0498361,0.056086,-0.564748,0.550855,-0.687371,10.9225
32782112,0.816864,-0.0483502,0.0542142,-0.572238,1.06099,-2.50519,7.69878
32804934,0.811941,-0.0461788,0.0550384,-0.579301,1.02986,1.51844,11.2099
32817111,0.806597,-0.0472499,0.055941,-0.586549,0.378413,-0.668211,8.95617
32838922,0.802321,-0.0446275,0.0545118,-0.59272,-0.165256,-1.88009,9.11903
32851128,0.797799,-0.0457476,0.053892,-0.598765,1.4897,-0.455054,11.1021
32873921,0.793357,-0.045579,0.0551347,-0.604539,0.665815,-0.0431104,9.74173
32886111,0.789583,-0.0449748,0.0529111,-0.609702,0.622705,-0.855022,9.19567
32907921,0.785756,-0.0447901,0.053242,-0.614611,0.862207,-0.799937,10.659
32929921,0.782112,-0.0449805,0.0547526,-0.619096,0.57241,-0.859812,9.71539
32942113,0.778958,-0.0449957,0.0536477,-0.623154,0.399968,-0.696951,9.26273
32963921,0.775915,-0.0445546,0.0532283,-0.627007,0.201182,-0.589175,10.2303
32976111,0.772895,-0.0449537,0.0543795,-0.630599,0.720901,-1.22865,9.7082
32997922,0.770294,-0.0449844,0.0537497,-0.633825,0.450264,-0.826282,9.34416
33010111,0.768009,-0.0446167,0.0532254,-0.636662,0.136516,-0.744851,10.0028
33031956,0.765629,-0.0447352,0.0540647,-0.639444,0.725691,-0.895737,9.81119
33044113,0.763502,-0.0446695,0.0536424,-0.642021,-0.0143701,-0.802332,9.44954
33065921,0.761541,-0.0442097,0.053192,-0.644416,-0.222737,-0.579595,10.0531
33078111,0.759389,-0.0444491,0.0540222,-0.646865,0.261057,-0.694556,9.89022
33099951,0.75743,-0.0444686,0.0538881,-0.649167,-0.0191602,-0.946033,9.60043
33112111,0.75562,-0.0442988,0.0534723,-0.651319,0.328118,-0.725691,9.81837
33133922,0.75369,-0.0443999,0.0539162,-0.653508,0.261057,-0.730481,9.97405
33156946,0.751964,-0.0444941,0.0541568,-0.655467,-0.0981958,-1.11847,9.41122
33169111,0.750442,-0.0443087,0.0536207,-0.657266,0.277822,-0.888552,9.67228
33190922,0.748792,-0.0441837,0.0538549,-0.659134,0.189207,-0.775986,10.0555
33203112,0.74716,-0.0441362,0.0541679,-0.660961,-0.239502,-0.862207,9.61959
33224921,0.745612,-0.0438433,0.0538701,-0.662751,-0.105381,-0.809517,9.78724
33237113,0.743804,-0.0436686,0.054156,-0.664768,-0.0239502,-0.440684,9.93094
33258921,0.741847,-0.0433997,0.0545647,-0.666935,-0.464634,-0.967588,9.77526
33271128,0.739893,-0.0433691,0.0542736,-0.669128,-0.766406,-0.792751,9.7106
33293921,0.737728,-0.0433959,0.0542803,-0.671512,-0.205972,-0.809517,9.88543
33306111,0.73539,-0.0436641,0.0545798,-0.67403,0.0359253,-0.754431,9.71778
33327921,0.733088,-0.0435578,0.0542419,-0.676566,-0.184417,-0.888552,9.66749
33340108,0.730762,-0.0434691,0.0542438,-0.679084,0.0239502,-0.783171,9.86148
33361922,0.728282,-0.0433522,0.0546355,-0.681719,-0.304167,-0.785566,9.78245
33374111,0.725771,-0.0432694,0.0546078,-0.684399,-0.59157,-0.855022,9.65072
33395946,0.723183,-0.0430779,0.05452,-0.687153,-0.249082,-0.819097,9.81119
33417921,0.720391,-0.0430353,0.0547393,-0.690064,-0.129331,-0.826282,9.73934
33430113,0.717549,-0.0430145,0.0546138,-0.69303,-0.191602,-0.792751,9.81837
33451922,0.714741,-0.0429695,0.0546244,-0.695927,-0.00479004,-0.720901,9.84711
33464108,0.711884,-0.0429713,0.0549249,-0.698826,0.237107,-0.792751,9.77287
33485921,0.709025,-0.0429864,0.0549057,-0.701728,-0.0263452,-0.924478,9.62917
33498111,0.706247,-0.042725,0.0548991,-0.70454,-0.215552,-0.924478,9.69144
33519946,0.703394,-0.0425765,0.0548428,-0.707401,-0.0910107,-0.821492,9.72976
33532111,0.700454,-0.0424577,0.0547565,-0.710326,-0.258662,-0.732876,9.82077
33553922,0.697469,-0.0423342,0.0547581,-0.713265,-0.0622705,-0.670605,9.87346
33566111,0.694532,-0.0423166,0.0547705,-0.716125,0.148491,-0.699346,9.804
33588921,0.691624,-0.0423005,0.0548066,-0.718932,0.138911,-0.704136,9.76329
33601113,0.688828,-0.0422566,0.0548871,-0.721608,0.107776,-0.737666,9.76808
33622921,0.686041,-0.0420977,0.0554044,-0.724227,0.428709,-0.771196,9.72018
33645921,0.683479,-0.0420602,0.0552559,-0.726659,0.232317,-1.04902,9.56211
33658113,0.681147,-0.0420804,0.0547649,-0.728882,0.296982,-1.06339,9.87106
33679921,0.679029,-0.0422148,0.054315,-0.730881,0.122146,-0.811912,9.88304
33692134,0.677002,-0.0423835,0.0542478,-0.732754,0.450264,-0.747246,9.82316
33713923,0.675073,-0.04224,0.0544831,-0.734523,0.593965,-0.775986,9.91178
33726108,0.673473,-0.0422496,0.0544161,-0.735995,0.368833,-0.831072,9.82316
33747921,0.672291,-0.0420671,0.0546585,-0.737067,0.239502,-0.752036,9.59564
33760113,0.671107,-0.0420811,0.053905,-0.738199,0.59636,-0.718506,9.81598
33781922,0.67012,-0.0416913,0.0546544,-0.739063,0.275427,-0.65384,9.69623
33794111,0.669257,-0.0413584,0.0550574,-0.739833,0.373623,-0.924478,9.64833
33815946,0.668744,-0.0414836,0.0546018,-0.740324,-0.0646655,-0.773591,9.71778
33828111,0.6684,-0.0416191,0.0546269,-0.740625,0.119751,-0.768801,9.5645
33850921,0.668128,-0.0412838,0.0547166,-0.740882,0.170046,-0.893342,9.70341
33863111,0.667813,-0.0409914,0.0548533,-0.741172,-0.237107,-0.850232,9.77287
33884921,0.667574,-0.0410241,0.0549109,-0.741381,-0.0694556,-0.780776,9.57169
33906921,0.667362,-0.0407934,0.0548374,-0.741591,-0.0598755,-0.828677,9.77287
33919111,0.667133,-0.040641,0.0551195,-0.741784,-0.0598755,-0.840652,9.8064
33940946,0.666912,-0.0406937,0.055121,-0.74198,0.0431104,-0.934058,9.65312
33953111,0.666755,-0.0404537,0.0549857,-0.742144,-0.0598755,-0.888552,9.7106
33975921,0.666629,-0.0403005,0.0550475,-0.742261,0.0263452,-0.850232,9.76568
33988111,0.66647,-0.0402583,0.0550115,-0.742409,0.0431104,-0.898132,9.69862
34010921,0.666389,-0.0400493,0.0550051,-0.742494,0.0263452,-0.828677,9.74652
34023113,0.666246,-0.0399061,0.0549922,-0.74263,-0.0934058,-0.838257,9.75371
34044921,0.666142,-0.0397465,0.0550695,-0.742726,-0.208367,-0.835862,9.77766
34057113,0.66601,-0.0395949,0.0551152,-0.742849,-0.0838257,-0.737666,9.76329
34078922,0.665766,-0.0395031,0.0552231,-0.743065,-0.138911,-0.802332,9.78963
34091111,0.665495,-0.039353,0.0554314,-0.743301,-0.234712,-0.833467,9.73215
34112960,0.665115,-0.0392509,0.055441,-0.743645,-0.100591,-0.807122,9.73455
34125111,0.66474,-0.039208,0.055475,-0.74398,-0.0502954,-0.871787,9.77287
34146922,0.664312,-0.0391296,0.0555824,-0.744358,0.134121,-0.929268,9.66988
34159112,0.66401,-0.0390173,0.0555157,-0.744638,0.0191602,-0.862207,9.70581
34180946,0.663719,-0.0388494,0.0554714,-0.744909,-0.0479004,-0.855022,9.74892
34202921,0.66342,-0.0387822,0.0555417,-0.745175,-0.0119751,-0.869392,9.69623
34215113,0.663067,-0.0386636,0.0555182,-0.745497,-0.0191602,-0.816702,9.74892
34236946,0.662777,-0.0384804,0.0554743,-0.745767,0,-0.807122,9.78245
34249111,0.662436,-0.0383642,0.0555564,-0.746069,-0.146096,-0.847837,9.7585
34270922,0.662137,-0.0382497,0.0555869,-0.746338,-0.0838257,-0.833467,9.69144
34283112,0.661844,-0.0381648,0.0555738,-0.746604,-0.00239502,-0.874182,9.77287
34304921,0.661502,-0.0380474,0.0555955,-0.746911,-0.114961,-0.843047,9.74173
34317113,0.661158,-0.0378892,0.0556498,-0.74722,-0.0814307,-0.878972,9.74173
34338921,0.660818,-0.0378241,0.0556922,-0.747521,0.0311353,-0.948428,9.65072
34351126,0.660517,-0.0375914,0.0555263,-0.747811,-0.0191602,-0.919688,9.72018
34372921,0.660174,-0.0373397,0.0553237,-0.748141,-0.0790356,-0.864602,9.84472
34394921,0.659616,-0.0371778,0.0563181,-0.748567,-0.234712,-1.50168,9.4711
34407111,0.659477,-0.0371655,0.0534437,-0.748901,0.55804,-0.64426,9.09029
34428921,0.659154,-0.035359,0.0526679,-0.749328,-0.186812,-1.57832,9.88304
34441113,0.658644,-0.0343713,0.0528378,-0.74981,0.198787,-2.39262,9.30824
34462921,0.659181,-0.0275312,0.0434597,-0.750223,1.99745,-2.98419,14.2875
34475111,0.659014,-0.0270147,0.0432487,-0.7504,-0.723296,-0.411943,12.2661
34496922,0.657452,-0.0256559,0.0444626,-0.751746,0.390388,-0.344883,6.68329
34509111,0.656395,-0.0239387,0.0444498,-0.752726,-1.08015,-0.773591,11.4374
34530923,0.655502,-0.02406,0.0475838,-0.753308,0.0550855,-1.22146,10.1417
34543113,0.654991,-0.0237488,0.0473706,-0.753776,0.189207,-0.759221,8.173
34564921,0.654715,-0.020997,0.0459608,-0.754185,-0.227527,-0.318538,10.8339
34586921,0.654014,-0.0220991,0.047187,-0.754686,0.167651,-1.09213,9.8064
34599111,0.65382,-0.0218378,0.0466863,-0.754893,-0.320933,-0.881367,8.76696
34621921,0.653684,-0.021432,0.0457297,-0.75508,0.775986,-0.730481,10.477
34634111,0.653278,-0.022315,0.0466657,-0.755349,0.411943,-0.704136,10.1896
34655946,0.653113,-0.0224242,0.046461,-0.755502,0.409548,-1.16637,8.86516
34668111,0.653165,-0.0221721,0.0453934,-0.755528,1.19511,-0.989143,10.0172
34689922,0.653279,-0.0224074,0.0462133,-0.755373,0.186812,-1.04423,10.1944
34702112,0.653608,-0.0224969,0.0465172,-0.755067,0.411943,-1.48012,9.21243
34724935,0.654086,-0.0221836,0.0457333,-0.75471,0.907712,-1.24781,9.95249
34737111,0.654279,-0.0224294,0.0463435,-0.754498,-0.00718506,-1.22146,10.1178
34758922,0.654729,-0.0225315,0.0464755,-0.754097,0.203577,-1.15679,9.33458
34771124,0.655203,-0.0223676,0.0459845,-0.75372,0.213157,-1.18314,9.89022
34792921,0.655564,-0.0223682,0.046619,-0.753367,0.131726,-1.33882,9.90459
34805111,0.655832,-0.0224322,0.046981,-0.75311,-0.0670606,-1.38193,9.36572
34826921,0.656007,-0.0220579,0.0465465,-0.752995,-0.895737,-1.21906,9.58366
34848921,0.655949,-0.021704,0.04669,-0.753047,-0.0550855,-1.03704,10.2615
34861113,0.655463,-0.0219911,0.0474005,-0.753418,-0.241897,-1.24062,9.50702
34882921,0.654963,-0.0219049,0.0466505,-0.753902,-0.773591,-1.08973,9.58606
34895111,0.654142,-0.0216296,0.0473277,-0.75458,-0.0191602,-0.914898,10.0938
34916921,0.653032,-0.0217609,0.0483491,-0.755472,-0.193997,-1.24781,9.2771
34929111,0.652094,-0.0216358,0.0475037,-0.756339,-0.859812,-1.26697,9.5645
34950926,0.650932,-0.0217812,0.0480298,-0.757302,-0.237107,-1.43941,10.0076
34963113,0.649603,-0.0219819,0.0486949,-0.758394,-0.299377,-1.54479,9.11184
34984921,0.648433,-0.0217162,0.0475999,-0.759472,-0.246687,-1.25739,9.78963
34997111,0.647138,-0.0221669,0.0480559,-0.760534,0.201182,-1.08015,10.3501
35018953,0.645949,-0.0220958,0.0492341,-0.761471,-0.244292,-1.44899,9.07831
35040921,0.644934,-0.0220956,0.0474195,-0.762446,0.0646655,-1.1041,9.97405
35053113,0.643908,-0.022097,0.0486182,-0.763237,-0.0311353,-1.06339,9.98602
35075946,0.643091,-0.0217223,0.0487506,-0.763928,0.0287402,-1.23583,9.02802
35088111,0.642303,-0.0216565,0.0479349,-0.764644,0.299377,-0.998723,10.4483
35110921,0.641297,-0.0218296,0.0499599,-0.765353,-0.366438,-1.13284,9.73934
35123112,0.640669,-0.0218554,0.0487387,-0.765957,-0.153281,-1.45857,9.1789
35144921,0.63991,-0.0220685,0.0486329,-0.766592,-0.205972,-0.924478,10.6518
35157113,0.639175,-0.02228,0.0495626,-0.76714,-0.256267,-1.38432,8.99688
35178921,0.638826,-0.0217929,0.0474432,-0.767577,0.457449,-0.998723,9.82556
35191126,0.637874,-0.0219878,0.0483999,-0.768304,-0.265847,-0.869392,10.2854
35212921,0.637036,-0.0217246,0.0506322,-0.768863,-0.57241,-1.29571,8.32628
35225111,0.636745,-0.0209421,0.0475477,-0.769322,-0.198787,-1.23823,10.089
35246921,0.635854,-0.020991,0.0482351,-0.770015,0.670605,-0.797542,10.3165
35259108,0.635198,-0.0213359,0.0480235,-0.77056,-0.787961,-1.24781,9.53576
35280922,0.634763,-0.0207557,0.0483251,-0.770915,0.253872,-1.1041,9.21962
35302921,0.634407,-0.0201198,0.0474099,-0.771281,0.996328,-0.811912,10.2782
35315112,0.633874,-0.0206876,0.0484597,-0.771639,-0.55325,-1.31008,9.96687
35336922,0.633859,-0.0199374,0.0478473,-0.77171,-0.320933,-0.972378,9.47349
35349111,0.633495,-0.0198763,0.0494257,-0.771911,0.673001,-0.845442,9.88543
35370926,0.633289,-0.0202419,0.0483398,-0.772139,0.0383203,-1.30529,9.48547
35383113,0.632966,-0.0206172,0.0486975,-0.772371,-0.58199,-0.984353,9.78484
35404921,0.632913,-0.0204672,0.0488485,-0.772409,-0.0790356,-0.953218,9.69144
35417111,0.632756,-0.0203797,0.0494152,-0.772504,0.122146,-0.972378,9.33698
35438949,0.632557,-0.0195764,0.0492039,-0.772701,0.452659,-1.03465,10.5752
35451111,0.632099,-0.020863,0.0504032,-0.772965,-0.764011,-1.0562,8.75978
35472922,0.632492,-0.0198137,0.0468905,-0.772893,-1.08494,-0.981958,9.87585
35485414,0.631556,-0.0193704,0.050682,-0.773429,1.96871,-1.11847,9.21722
35507921,0.631295,-0.0186119,0.0482579,-0.773816,-1.23823,-1.63101,8.55141
35520111,0.631684,-0.0171863,0.0491469,-0.773476,-1.12805,0.790356,11.4733
35541921,0.630716,-0.0156708,0.0518225,-0.774123,1.19511,-2.12438,8.48914
35564947,0.629784,-0.0153269,0.0454319,-0.775289,-0.847837,-0.6251,8.78852
35577111,0.629053,-0.0149986,0.0478715,-0.775742,-0.871787,-0.311353,11.1141
35598922,0.628138,-0.0125762,0.0537578,-0.776141,0.993933,-2.18905,7.86643
35611134,0.62832,-0.0115916,0.0452596,-0.776551,0.661025,-0.280217,9.52379
35633921,0.627265,-0.00990228,0.0454258,-0.777417,-1.00351,0.66342,11.2865
35646111,0.626399,-0.00916387,0.0515733,-0.77774,-0.742456,-1.77471,7.98379
35667921,0.626621,-0.00642193,0.0447862,-0.77801,2.4525,-1.22865,11.2338
35680108,0.62671,-0.00926498,0.0462356,-0.777824,-1.95194,1.28852,14.4815
35701922,0.62607,-0.0115251,0.052622,-0.777904,1.17595,-1.56155,7.55987
35714111,0.626433,-0.0118472,0.0462586,-0.778012,0.780776,-2.47885,8.8939
35735946,0.626449,-0.00916281,0.0477687,-0.777944,-0.931663,0.752036,10.101
35748111,0.626232,-0.00841625,0.0489772,-0.778051,0.395178,-1.152,9.1813
35769922,0.626196,-0.0111384,0.0481945,-0.778095,0.313748,-1.14242,9.31063
35782112,0.62669,-0.00907985,0.0447898,-0.777927,-0.198787,-1.40588,9.83514
35804934,0.626851,-0.00471342,0.0467377,-0.777722,1.04183,-1.67891,8.98251
35817111,0.626424,-0.00537026,0.0433359,-0.778258,0.0958008,0.258662,7.75387
35838922,0.625443,-0.0114421,0.0474786,-0.77874,-1.60227,-0.342488,11.9691
35860946,0.624736,-0.00916874,0.053417,-0.778953,0.330513,-2.54351,7.55269
35873111,0.625297,-0.00858992,0.0453401,-0.779021,0.668211,0.124541,9.70102
35894922,0.624707,-0.00631559,0.0498003,-0.779244,-2.68721,-0.320933,9.41362
35907112,0.624419,-0.00510706,0.0446875,-0.779793,1.52084,-2.57465,8.74541
35928921,0.624046,-0.0077235,0.0438576,-0.780118,-2.56267,2.33035,7.89996
35941113,0.622941,-0.00362201,0.0435583,-0.781046,0.136516,2.19384,9.72976
35962921,0.62085,-0.0101243,0.0461596,-0.782504,-2.3543,-0.802332,8.27119
35975111,0.6189,-0.0114323,0.0444962,-0.784125,4.71819,-2.12438,12.2733
35996922,0.61845,-0.00375855,0.0478793,-0.784355,-2.78301,1.13284,6.26177
36009111,0.618336,0.000204704,0.0477802,-0.78446,-0.900527,1.39869,3.90507
36030933,0.61782,0.00846448,0.0340209,-0.785538,2.93869,-1.67651,15.8107
36053922,0.616676,0.000161068,0.0416661,-0.786114,0.217947,0.936453,9.54534
36066107,0.615439,0.00585152,0.0473275,-0.786741,-0.682581,-1.43462,3.16022
36087921,0.615673,0.0156893,0.0362235,-0.787012,2.55549,-2.35909,16.067
36100106,0.615387,0.00891619,0.0413042,-0.787092,-0.955613,0.486189,10.4531
36121922,0.613896,0.0128782,0.0460229,-0.787939,-1.02746,0.184417,5.572
36134106,0.613603,0.013639,0.0410937,-0.788427,0.263452,-1.54,10.968
36155946,0.613338,0.0112047,0.0389331,-0.788781,-0.186812,0.526904,12.0649
36168105,0.612645,0.0132282,0.0413231,-0.789166,-0.148491,-0.203577,9.4208
36189922,0.612368,0.0109145,0.037455,-0.789609,0.186812,-1.35319,9.19567
36202108,0.61185,0.0106058,0.038215,-0.789979,-1.01788,0.124541,10.4219
36224934,0.611547,0.011803,0.0413767,-0.790037,0.735271,-1.1544,8.95377
36237107,0.611382,0.0108213,0.0379829,-0.790349,0.953218,-0.713716,8.96335
36258922,0.611161,0.0121122,0.037133,-0.790542,-1.78668,-0.273032,11.4302
36271129,0.610765,0.0125111,0.040412,-0.790681,1.15919,-1.04423,9.48068
36293921,0.610597,0.0132493,0.0374459,-0.790945,-0.124541,-0.673001,8.58494
36306106,0.610008,0.011745,0.0392571,-0.791335,-0.55325,-0.0431104,10.8602
36327921,0.609413,0.0113561,0.0406056,-0.791731,0.00958008,-1.00351,9.93334
36340404,0.609069,0.0107605,0.0392107,-0.792074,0.0862207,-0.986748,8.07959
36363922,0.608926,0.0133804,0.0357299,-0.792309,0.55804,-0.524509,11.4805
36376106,0.60836,0.0104612,0.0390523,-0.792631,0.0311353,-0.308958,9.77287
36397946,0.607725,0.0124943,0.0420978,-0.792932,-0.158071,-0.689766,7.12398
36410105,0.607736,0.0119673,0.0369347,-0.793189,-0.390388,-0.435894,10.2231
36431922,0.607331,0.0111108,0.037764,-0.793473,0.0862207,0.0359253,10.6878
36453952,0.60675,0.0128007,0.0408467,-0.793739,0.251477,-1.26697,8.40052
36466111,0.606639,0.0123104,0.0373188,-0.794005,-0.203577,-1.01788,10.4459
36487922,0.6063,0.0123651,0.0393881,-0.794163,-0.792751,0.328118,10.2615
36500112,0.605814,0.011979,0.0383239,-0.794593,0.00958008,-0.974773,8.98251
36522946,0.605306,0.0115386,0.03898,-0.794954,-0.476609,-0.632285,10.7884
36535111,0.605003,0.00999279,0.0380414,-0.795251,0.541274,-1.17835,9.06155
36556922,0.604728,0.0105001,0.0376961,-0.79547,-0.0119751,0.0119751,10.0699
36569113,0.604731,0.0109902,0.0364832,-0.795518,-0.0838257,-0.141306,10.1944
36590921,0.604238,0.0103183,0.0384989,-0.795806,0.6251,-0.395178,9.82556
36603113,0.604174,0.011223,0.0384786,-0.795843,-0.280217,-0.938848,8.04127
36624921,0.604448,0.0142989,0.0365056,-0.795679,-0.165256,0.158071,12.4601
36637113,0.604191,0.0130393,0.0391057,-0.795773,0.385598,-0.687371,9.86627
36658921,0.604264,0.0134429,0.0375585,-0.795785,-0.0359253,-0.603545,8.12749
36680921,0.60434,0.0141453,0.0371594,-0.795734,-0.64426,0.318538,11.3105
36693140,0.604379,0.0140258,0.0384112,-0.795647,-0.778381,-0.670605,10.8506
36714921,0.604356,0.0125694,0.0389046,-0.795665,-0.00239502,-0.55325,8.97293
36727108,0.604324,0.0131711,0.0376546,-0.79574,0.56762,0.258662,10.01
36749923,0.604147,0.0124451,0.0391681,-0.795813,-0.138911,-0.167651,10.2064
36762106,0.604095,0.0120444,0.0394824,-0.795843,-0.0167651,-0.852627,8.77415
36783922,0.604193,0.012214,0.0378446,-0.795845,0.160466,-0.136516,10.3692
36796108,0.604083,0.011951,0.0394277,-0.795856,-0.241897,0.0766406,9.73215
36817946,0.604127,0.0121174,0.0387143,-0.795855,0.404758,-0.229922,9.54534
36830107,0.604232,0.0120561,0.0387491,-0.795774,-0.285007,-0.177231,10.0794
36851922,0.604289,0.0118613,0.0394608,-0.795699,-0.306563,-0.316143,9.44475
36864107,0.604422,0.0117475,0.0389041,-0.795627,-0.237107,-0.182021,9.72976
36886921,0.60446,0.0118052,0.039836,-0.795551,-0.237107,-0.251477,9.71778
36899107,0.604469,0.0117455,0.0394857,-0.795563,0.114961,-0.378413,9.39206
36920921,0.604548,0.0117368,0.0385847,-0.795547,-0.673001,-0.131726,10.1345
36943946,0.60452,0.012318,0.0394036,-0.795519,-0.217947,0.0694556,9.85669
36956111,0.604466,0.0119184,0.038829,-0.795595,0.00479004,-0.126936,9.60522
36977922,0.604351,0.0120302,0.0386921,-0.795688,-0.426313,-0.00958008,10.0579
36990116,0.604113,0.0122514,0.0393479,-0.795832,0.186812,-0.0239502,9.85669
37011921,0.603751,0.0120085,0.0393275,-0.796111,-0.265847,-0.0455054,9.69383
37024111,0.603471,0.0121964,0.0394694,-0.796314,-0.294587,0,9.7561
37045921,0.603047,0.0125688,0.0403657,-0.796585,-0.0934058,-0.205972,9.82556
37058109,0.602559,0.0123255,0.0401742,-0.796967,-0.342488,-0.136516,9.68904
37079922,0.602008,0.0122335,0.0399587,-0.797396,-0.222737,0.0191602,9.67228
37092111,0.601485,0.012403,0.0399532,-0.797788,-0.529299,-0.0742456,9.73694
37113954,0.601037,0.0123764,0.0398257,-0.798133,-0.0263452,-0.225132,9.89262
37126111,0.600292,0.012206,0.0399222,-0.79869,0.318538,-0.217947,9.84472
37147922,0.599569,0.0123156,0.0398094,-0.799238,-0.172441,-0.0814307,9.78005
37170926,0.599081,0.0123673,0.0398389,-0.799601,0.0526904,-0.0886157,9.88304
37183113,0.59851,0.0121891,0.0400917,-0.800018,0.0790356,-0.280217,9.73455
37204921,0.598068,0.0121765,0.0401955,-0.800344,-0.143701,-0.172441,9.79442
37217111,0.597661,0.0121006,0.0402273,-0.800648,0.124541,-0.280217,9.69623
37238946,0.597351,0.0120437,0.0401053,-0.800886,0.0479004,-0.361648,9.72497
37251111,0.597175,0.0118774,0.0397841,-0.801035,0.0742456,-0.589175,9.97165
37272922,0.596965,0.0116578,0.0405525,-0.801157,0.00718506,-0.797542,9.73455
37285112,0.596752,0.0116825,0.0405031,-0.801317,0.158071,-0.802332,9.59085
37306921,0.596553,0.011626,0.0402834,-0.801478,0.0862207,-0.783171,9.88304
37319113,0.596341,0.0116524,0.0407666,-0.801611,-0.167651,-0.802332,9.7585
37340921,0.596176,0.0116898,0.0408022,-0.801731,-0.00718506,-0.792751,9.5669
37353161,0.59601,0.0116579,0.0405422,-0.801868,0.0263452,-0.699346,9.79203
37374921,0.595924,0.0116182,0.0408244,-0.801918,-0.0526904,-0.696951,9.83514
37396922,0.595813,0.0115853,0.0408763,-0.801999,-0.00479004,-0.799937,9.62198
37409113,0.595702,0.0115597,0.0407109,-0.80209,-0.100591,-0.747246,9.8519
37431921,0.595629,0.0114856,0.0409194,-0.802135,-0.0431104,-0.670605,9.81358
37444113,0.595551,0.0113601,0.0409951,-0.80219,-0.0311353,-0.754431,9.65312
37465921,0.595521,0.0112566,0.0408194,-0.802223,-0.0239502,-0.713716,9.82795
37478111,0.59541,0.0112079,0.0410323,-0.802296,-0.0574805,-0.764011,9.79921
37499922,0.595376,0.0111429,0.0410625,-0.80232,-0.0431104,-0.766406,9.64593
37512111,0.595353,0.011072,0.0409366,-0.802345,-0.0670606,-0.728086,9.8064
37533952,0.59524,0.0110289,0.0411619,-0.802417,-0.131726,-0.740061,9.82556
37546111,0.595103,0.0110105,0.0412105,-0.802516,-0.0574805,-0.749641,9.68904
37567922,0.594929,0.0109562,0.0411185,-0.802651,-0.114961,-0.699346,9.78005
37580112,0.594778,0.0109056,0.0412941,-0.802755,-0.0886157,-0.744851,9.76089
37602946,0.594663,0.0108255,0.0412447,-0.802844,-0.0215552,-0.819097,9.62198
37615111,0.594551,0.0106871,0.0407321,-0.802955,0.131726,-0.828677,9.72976
37637921,0.594589,0.0107112,0.0406718,-0.802929,0.0383203,-0.787961,9.85909
37650123,0.59461,0.0109384,0.0408315,-0.802902,0.0598755,-0.696951,9.79203
37672921,0.594653,0.0109674,0.040837,-0.802869,-0.100591,-0.730481,9.70581
37685108,0.594654,0.0110286,0.0407795,-0.802871,-0.189207,-0.845442,9.71539
37706921,0.594824,0.0110671,0.0404697,-0.802761,0.0502954,-0.828677,9.85909
37719109,0.594937,0.0109366,0.0406676,-0.802668,0.0958008,-0.775986,9.94291
37740921,0.595009,0.010803,0.0408839,-0.802606,0.0934058,-0.831072,9.65551
37762921,0.595091,0.0108205,0.040727,-0.802553,0.0143701,-0.866997,9.7082
37775113,0.595112,0.010848,0.0407431,-0.802536,-0.105381,-0.912502,9.80161
37796921,0.595095,0.0107852,0.040959,-0.802539,-0.308958,-1.03944,9.71539
37809111,0.595099,0.0107663,0.0408589,-0.802541,-0.148491,-1.02028,9.70102
37830927,0.594982,0.0107193,0.0409013,-0.802626,-0.102986,-1.07776,9.87585
37843113,0.594893,0.0106116,0.0410834,-0.802684,-0.0526904,-1.14003,9.71778
37864921,0.594708,0.0105727,0.0410303,-0.802824,-0.0718506,-1.17356,9.67946
37877111,0.594551,0.0104935,0.040986,-0.802944,-0.0526904,-1.21906,9.78484
37898949,0.594407,0.0104963,0.0410679,-0.803046,0.0431104,-1.21188,9.76089
37911111,0.594361,0.0104568,0.0410954,-0.80308,0.150886,-1.26457,9.74652
37932922,0.594395,0.0104576,0.0411919,-0.803049,-0.0479004,-1.23823,9.8519
37955946,0.594313,0.0104461,0.0415022,-0.803094,-0.160466,-1.25739,9.69144
37968111,0.594191,0.0102738,0.0415457,-0.803185,-0.110171,-1.31487,9.67228
37989922,0.594064,0.0100458,0.0417918,-0.803269,-0.0790356,-1.31487,9.68425
38002112,0.593956,0.00979896,0.0416485,-0.803359,0.165256,-1.25499,9.60761
38024933,0.593817,0.00973788,0.0417229,-0.803459,-0.0479004,-1.26936,9.9022
38037111,0.593743,0.00961237,0.0424275,-0.803478,0.124541,-1.43462,9.53576
38058922,0.59375,0.00952222,0.0420641,-0.803493,-0.0981958,-1.3005,9.54534
38071147,0.593738,0.0094403,0.0416059,-0.803527,-0.0407153,-1.18793,10.2231
38093921,0.593599,0.00907094,0.0427423,-0.803574,0.208367,-1.22386,9.64593
38106106,0.593729,0.00896559,0.0425456,-0.803489,0.0958008,-1.3963,9.11663
38127921,0.594113,0.0089655,0.0415539,-0.803258,0.222737,-1.04662,10.2806
38140105,0.59426,0.00923814,0.0431832,-0.80306,-0.0383203,-1.19751,9.8543
38162922,0.594507,0.00907139,0.0428004,-0.802899,-0.440684,-1.26936,8.98491
38175106,0.594728,0.00997807,0.0415729,-0.802789,0.172441,-1.2023,10.5872
38196946,0.594829,0.00925516,0.0430581,-0.802645,0.105381,-1.07297,10.022
38209105,0.595103,0.009021,0.0431431,-0.80244,0.246687,-1.27415,8.86276
38230922,0.595541,0.00964173,0.042466,-0.802144,-0.00718506,-1.13524,10.1345
38243108,0.595771,0.00934577,0.0439366,-0.801897,0.00239502,-1.40588,9.62917
38264921,0.596306,0.0094245,0.0429602,-0.801552,-0.299377,-1.23344,8.96335
38277108,0.596639,0.00944319,0.0426028,-0.801323,-0.682581,-0.869392,11.0183
38298921,0.596785,0.00825851,0.0447508,-0.80111,0.507744,-1.63101,9.03281
38320946,0.597287,0.00848224,0.0419473,-0.800885,0.0670606,-1.12326,9.72736
38333111,0.597473,0.00849265,0.0437188,-0.800651,-0.0646655,-0.941243,9.97165
38354922,0.597849,0.00928379,0.0452083,-0.800279,0.0981958,-1.43941,8.00774
38367112,0.598575,0.0110977,0.0405797,-0.799961,0.646655,-1.30529,11.5548
38388921,0.599002,0.00938785,0.0439255,-0.799486,-0.0742456,-0.627495,9.998
38401113,0.598939,0.0107119,0.0442447,-0.7995,0.201182,-0.979563,7.55987
38422921,0.599373,0.0137094,0.0429656,-0.799199,-0.893342,-1.16877,11.7296
38435111,0.599694,0.0110451,0.044168,-0.798933,0.114961,-1.14003,9.8064
38456922,0.599985,0.0111467,0.0433209,-0.79876,0.565225,-1.17116,8.39573
38469111,0.600412,0.0107718,0.0435688,-0.798431,-0.455054,-0.0479004,11.7224
38490928,0.600495,0.0104909,0.0469389,-0.798181,0.0383203,-1.76992,8.52506
38513922,0.601019,0.01046,0.0439819,-0.797955,0.239502,-1.25499,9.92854
38526107,0.60106,0.0102803,0.0468149,-0.797766,0.0886157,-0.641865,9.36811
38547921,0.601669,0.0108644,0.0474777,-0.797259,-0.680186,-1.26218,8.39573
38560106,0.602521,0.0139587,0.0447495,-0.796725,0.512534,-1.53521,12.4409
38581922,0.602689,0.0120011,0.0501115,-0.796311,-0.323328,-1.14242,9.51181
38594106,0.603363,0.0122336,0.0461351,-0.796037,0.706531,-1.26936,7.4952
38615946,0.603527,0.0113632,0.0464641,-0.795906,-0.368833,-0.182021,13.3223
38628105,0.603803,0.00872081,0.0500145,-0.795515,0.344883,-1.6813,9.07113
38649922,0.604492,0.0088738,0.0456354,-0.795253,0.0143701,-1.18553,8.46998
38662108,0.604682,0.00857473,0.0481236,-0.794966,-0.265847,-1.48731,10.2303
38684933,0.604643,0.00977911,0.0495673,-0.794892,0.665815,-1.24541,9.37051
38697107,0.605319,0.00684216,0.0438331,-0.794746,0.208367,-1.23104,10.1896
38718922,0.605603,0.00912998,0.0446316,-0.794462,-0.524509,-0.802332,10.3644
38731139,0.605071,0.00912492,0.0509345,-0.794488,1.11608,-1.98308,8.45561
38752921,0.605473,0.00888239,0.0459774,-0.794487,0.0886157,-1.01549,8.83163
38774922,0.606172,0.0117491,0.043783,-0.794041,-1.8777,-0.931663,12.4505
38787112,0.606275,0.00988977,0.0460288,-0.79386,0.390388,-0.452659,9.86148
38808921,0.60644,0.00952319,0.0422271,-0.79395,0.687371,-1.0083,8.62326
38821113,0.606163,0.00641834,0.0453743,-0.794019,-0.438289,-0.203577,11.0829
38842921,0.605986,0.00794096,0.0478772,-0.793994,1.1065,-0.929268,8.8915
38855111,0.605984,0.00806232,0.0484415,-0.79396,-1.01549,-0.802332,9.5166
38876922,0.605697,0.00688324,0.0486247,-0.794178,1.37953,-0.536484,9.4687
38889111,0.605589,0.00765329,0.0477463,-0.794307,-1.42264,-0.696951,9.59564
38910951,0.605946,0.00803495,0.0470599,-0.794072,-0.208367,-0.0335303,9.68425
38923112,0.605625,0.00736429,0.0480476,-0.794264,0.490979,-0.548459,10.2638
38944921,0.605773,0.00773162,0.0481698,-0.79414,-0.414338,-1.33403,8.5083
38966921,0.606435,0.0118657,0.0436405,-0.793846,0.704136,-0.979563,12.3116
38979105,0.606119,0.0108864,0.0481424,-0.793841,-0.895737,-0.881367,8.9394
39000922,0.606187,0.0118803,0.0451965,-0.793948,0.280217,-1.88967,6.89405
39013106,0.606017,0.0171373,0.0418626,-0.794165,-0.289797,0.105381,14.9772
39034946,0.605723,0.0164299,0.046123,-0.794168,0.972378,-2.1627,9.88304
39047105,0.605403,0.0172799,0.0454981,-0.79443,0.00958008,-0.783171,6.1492
39068922,0.605075,0.0177172,0.0451265,-0.794691,-1.346,1.77231,13.4396
39081112,0.604158,0.0152995,0.0512197,-0.795069,0.536484,-0.759221,8.92503
39103936,0.604582,0.013982,0.0462169,-0.795078,-0.356858,-1.03704,7.72992
39116111,0.604735,0.00999777,0.0473407,-0.794956,-1.75794,1.38193,12.7714
39137922,0.605093,0.00848546,0.0510476,-0.794471,0.828677,-1.22625,9.87825
39150130,0.604652,0.00617492,0.0498896,-0.794902,1.14961,-1.04183,8.09157
39172923,0.604792,0.00673151,0.0480044,-0.794907,-1.35558,-0.60115,11.4949
39185111,0.604374,0.00760169,0.0533488,-0.794876,-0.251477,0.220342,8.82444
39206921,0.604433,0.00646884,0.0495262,-0.795088,0.313748,-0.742456,7.91673
39228921,0.604069,0.00351093,0.0516928,-0.795246,-1.35319,0.878972,14.1773
39241113,0.60399,0.000465717,0.0553274,-0.795069,0.670605,-2.33514,8.54662
39262921,0.604487,0.0012353,0.0493567,-0.795084,1.71244,-0.63947,8.68553
39275111,0.604347,0.00153271,0.0500734,-0.795144,0.225132,0.00718506,11.4805
39296922,0.603862,0.000398144,0.056089,-0.795113,0.268242,-0.65863,8.70469
39309111,0.603861,0.00145338,0.0530913,-0.795318,-0.261057,-1.51844,8.32867
39330954,0.603417,0.00115571,0.0541131,-0.795587,-0.656235,-0.493374,11.3991
39343112,0.603192,0.000421878,0.057886,-0.795492,-0.00239502,-0.0766406,9.35614
