timestamp,gyro_x,gyro_y,gyro_z,mag_x,mag_y,mag_z,accel_x,accel_y,accel_z
15351631,0.00213053,0.0127832,0.0138484,18.75,-2.55,73.2,0.107776,0.864602,9.83201
15364376,-0.0106526,0.0117179,0.00532632,18.6,-3,72.45,0.119751,0.895737,9.92542
15377361,-0.0170442,0.0106526,0.00426106,18.6,-1.95,72.45,0.124541,0.852627,9.99966
15400202,-0.00426106,0.0117179,0.00745685,19.35,-1.65,73.5,0.0455054,0.845442,9.96853
15412417,-0.00319579,0.0138484,0.00639159,18.15,-3.6,72.9,0.146096,0.828677,10.0092
15435204,0.00319579,0.0170442,0.00532632,18.3,-2.4,70.95,0.0958008,0.819097,9.90147
15447366,-0.00852211,0.0106526,0.00639159,19.35,-1.2,74.1,0.114961,0.799937,9.935
15470208,-0.0106526,0.0127832,0,18.45,-1.05,72.6,0.0790356,0.833467,9.96613
15483376,-0.0106526,0.0127832,0.00639159,19.2,-1.8,71.55,0.0646655,0.864602,9.99487
15506203,-0.00532632,0.00639159,0.00852211,18.6,-2.7,72.45,0.0981958,0.773591,9.96853
15518373,0.00106526,0.0127832,0.00852211,19.5,-1.8,74.25,0.114961,0.802332,9.9805
15541216,-0.00639159,0.00639159,0.00745685,17.7,-2.55,72.6,0.117356,0.850232,10.026
15554378,0,0.0149137,0.00745685,18.75,-2.55,72.6,0.0958008,0.807122,9.95655
15577203,-0.00213053,0.0127832,0.00745685,19.2,-2.85,72.9,0.0981958,0.855022,9.90626
15589380,-0.0138484,0.0106526,0.00426106,19.2,-1.8,73.65,0.143701,0.831072,9.92063
15612210,-0.00958738,0.0117179,0.00532632,18.75,-1.35,72.9,0.0574805,0.826282,9.97571
15625378,-0.00106526,0.00639159,0.00639159,18.75,-1.8,72.6,0.0287402,0.883762,10.0715
15648203,0.00426106,0.015979,0.0127832,19.05,-3.75,73.05,0.0981958,0.855022,9.99487
15660382,-0.00639159,0.0117179,0.0106526,19.35,-1.65,71.7,0.138911,0.756826,9.92302
15683203,-0.00639159,0.00745685,0.00745685,18.75,-3.6,72.15,0.0790356,0.840652,10.0068
15695377,-0.0106526,0.0106526,0.00639159,20.25,-1.8,71.85,0.0742456,0.864602,9.97811
15718216,-0.00532632,0.0138484,0.00639159,18.3,-1.95,72.75,0.155676,0.919688,10.0092
15731379,-0.00319579,0.00426106,0.00745685,19.2,-1.8,73.65,0.131726,0.843047,9.99966
15744377,-0.00745685,0.0117179,0.00639159,18.3,-1.2,72.45,0.0766406,0.799937,9.94937
15767203,-0.00213053,0.0138484,0.0117179,18.3,-3,71.7,0.0718506,0.881367,9.91105
15780377,-0.00745685,0.0127832,0.00745685,19.2,-2.85,72.6,0.0646655,0.876577,9.99008
15803203,-0.015979,0.0106526,0.00745685,18.3,-1.95,73.05,0.0479004,0.823887,9.99248
15816377,0.00106526,0.0138484,0.00745685,18.6,-2.4,71.7,0.136516,0.802332,9.93021
15839216,-0.00745685,0.0149137,0.00639159,18.15,-2.55,73.65,0.110171,0.831072,9.92781
15852378,-0.0181095,0.0127832,0.00745685,19.65,-1.65,73.05,0.141306,0.855022,9.88949
15875203,-0.00745685,0.00852211,0.00213053,19.05,-3.45,72.45,0.162861,0.912502,9.98529
15887376,-0.0117179,0.00745685,0.00745685,19.65,-1.65,74.1,0.100591,0.833467,9.9805
15910210,-0.00532632,0.0106526,0.00852211,18.75,-2.55,72.6,0.0550855,0.886157,9.96134
15923378,-0.00319579,0.00958738,0.00639159,19.05,-0.9,73.5,0.105381,0.823887,9.99727
15936376,-0.00532632,0.00532632,0.00958738,19.35,-3.45,72.45,0.122146,0.876577,9.98769
15959216,0.00106526,0.0117179,0.00745685,19.35,-1.65,74.1,0.110171,0.816702,9.95655
15972378,-0.0106526,0.0117179,0.00426106,18.15,-2.1,73.2,0.0814307,0.797542,9.92781
15995203,-0.0117179,0.00745685,0.00426106,18.75,-2.55,72.9,0.155676,0.871787,9.87512
16007376,-0.00852211,0.00958738,0.00639159,19.5,-3.6,72.9,0.0742456,0.819097,9.97332
16030210,-0.00532632,0.0106526,0.00426106,17.4,-2.85,73.2,0.0718506,0.799937,10.0571
16043378,0,0.0138484,0.00958738,19.2,-2.1,72.15,0.107776,0.785566,9.97092
16066203,-0.00213053,0.0106526,0.00745685,18.3,-2.7,72.45,0.117356,0.855022,9.96613
16079381,-0.0117179,0.0127832,0.00958738,18.6,-3.45,72.75,0.117356,0.833467,9.90865
16102203,-0.0127832,0.00745685,0.00319579,19.65,-1.65,72.45,0.110171,0.809517,9.97811
16115377,-0.0149137,0.00532632,0.00319579,19.35,-3,73.5,0.134121,0.866997,9.98769
16128376,0.00213053,0.0117179,0.00532632,19.5,-1.35,73.65,0.0886157,0.883762,10.0404
16151209,0.00639159,0.00639159,0.0117179,18.45,-2.85,71.55,0.198787,0.797542,9.95176
16164378,-0.00745685,0.0138484,0.00426106,18.15,-2.55,72.6,0.138911,0.831072,9.92063
16187203,-0.0245011,0.00852211,0.00426106,20.4,-2.4,72.45,0.131726,0.833467,9.90147
16199377,-0.00958738,0.00213053,0.00213053,19.05,-2.4,73.5,0.0479004,0.840652,10.0955
16222203,0.00639159,0.00958738,0.00958738,18.75,-2.1,72.9,0.107776,0.826282,10.0907
16234376,0.0106526,0.0181095,0.0127832,18.6,-2.4,72.75,0.0718506,0.840652,9.88231
16257216,-0.00426106,0.0149137,0.00532632,20.25,-1.35,72.6,0.148491,0.816702,9.84159
16270378,-0.015979,0.00852211,0.00319579,19.2,-2.85,71.85,0.131726,0.797542,9.92302
16293203,-0.00639159,0.00532632,0.00106526,18.3,-2.4,72,0.0814307,0.833467,10.0571
16305376,0.00106526,0.00958738,0.00745685,17.7,-2.1,71.55,0.0862207,0.869392,9.97092
16328209,0.00213053,0.00958738,0.00426106,19.05,-1.65,72.75,0.153281,0.855022,9.93979
16341379,-0.0106526,0.00639159,0.00745685,18.15,-2.1,71.85,0.153281,0.821492,9.935
16364203,-0.00639159,0.0106526,0.00639159,20.1,-2.7,72.75,0.0790356,0.821492,9.99727
16376381,0.00213053,0.0127832,0.0106526,21.15,-2.4,73.05,0.114961,0.866997,10.0068
16389675,-0.0106526,0.00852211,0.00532632,17.55,-3,73.05,0.136516,0.833467,9.93739
16412203,-0.0106526,0.00852211,0.00213053,18.6,-1.65,72.45,0.102986,0.811912,9.95655
16424376,-0.00745685,0.0106526,0.00532632,18.75,-2.1,73.95,0.0646655,0.845442,9.99487
16447209,-0.00639159,0.0138484,0.00639159,19.35,-2.4,72,0.100591,0.831072,9.95416
16459378,-0.00532632,0.00958738,0.0106526,20.4,-1.95,73.05,0.138911,0.831072,9.93739
16482203,-0.0181095,0.0106526,0.00745685,18.75,-2.55,73.65,0.0646655,0.890947,9.88949
16495382,-0.015979,0.00532632,0.00319579,18.6,-2.4,72,0.0670606,0.845442,9.935
16518203,-0.00958738,0.00532632,0.00319579,18.6,-1.65,72.45,0.0622705,0.807122,10.038
16530376,0.00319579,0.00852211,0.00958738,18.6,-1.65,70.95,0.0958008,0.845442,10.038
16553242,-0.00106526,0.0106526,0.00745685,19.5,-2.85,71.55,0.131726,0.828677,9.91823
16566378,-0.00852211,0.0127832,0.00319579,19.35,-1.65,71.7,0.0886157,0.845442,9.87752
16589203,-0.02024,0.00958738,0.00213053,17.4,-2.55,73.2,0.0886157,0.823887,9.96613
16602376,-0.0117179,0.00106526,0.00852211,20.1,-0.9,73.5,0.124541,0.823887,10.0404
16625209,0.00106526,0.0106526,0.0117179,20.1,-2.7,72.45,0.119751,0.850232,10.0571
16638379,0.00213053,0.0181095,0.0127832,17.7,-2.55,71.85,0.110171,0.859812,10.0164
16651376,0.00319579,0.00745685,0.00532632,17.7,-3.3,71.85,0.150886,0.816702,9.89668
16674246,-0.0127832,0.00958738,0,19.2,-2.1,73.2,0.107776,0.900527,9.92542
16687377,-0.0117179,0.00852211,0.00213053,18.75,-2.1,72.6,0.153281,0.823887,9.97332
16710203,0,0.00426106,0.00745685,19.95,-2.85,72.15,0.141306,0.881367,10.0428
16722376,-0.00319579,0.0106526,0.0106526,19.05,-1.65,73.5,0.150886,0.826282,9.99966
16745209,-0.00852211,0.0181095,0.0117179,19.05,-1.95,73.05,0.0814307,0.843047,9.90626
16758379,-0.00532632,0.0106526,0.00639159,20.25,-2.1,73.65,0.100591,0.893342,9.96374
16781203,-0.0106526,0.00532632,0.00745685,18.45,-1.05,73.65,0.0910107,0.819097,9.97092
16793405,-0.00745685,0.00639159,0.00106526,18.75,-2.55,72.15,0.122146,0.843047,9.94697
16816203,-0.00319579,0.00852211,0.00745685,19.5,-2.1,73.95,0.160466,0.893342,10.0021
16829377,-0.00852211,0.0106526,0.00852211,18.45,-3.6,72.9,0.0981958,0.816702,10.026
16852251,0,0.0106526,0.00639159,18.6,-1.65,73.8,0.0958008,0.843047,9.99966
16865377,-0.00213053,0.0106526,0.00852211,19.05,-2.4,73.05,0.0598755,0.902922,10.0116
16878376,-0.0106526,0.0106526,0.00745685,18.75,-1.8,71.85,0.160466,0.807122,9.95416
16901203,-0.0117179,0.00852211,0.00745685,17.85,-1.95,72,0.136516,0.850232,9.94697
16913406,-0.00745685,0.0138484,0.00639159,19.2,-1.8,73.2,0.0766406,0.850232,10.014
16936203,-0.00852211,0.00958738,0.0117179,19.35,-1.95,72,0.0574805,0.826282,9.98769
16948376,-0.00532632,0.0106526,0.00852211,18.45,-1.35,72.6,0.112566,0.816702,9.91823
16971238,-0.00745685,0.015979,0.00319579,19.05,-2.7,73.5,0.0550855,0.862207,9.96613
16984378,-0.0149137,0.00213053,0.00106526,18.45,-2.1,72.6,0.0359253,0.866997,10.0068
17007203,-0.0127832,0.00639159,-0.00106526,18.75,-2.1,73.65,0.0934058,0.790356,9.9829
17019376,0.00426106,0.00745685,0.00745685,19.65,-2.4,74.55,0.205972,0.835862,10.0068
17042216,0.00319579,0.015979,0.0117179,19.2,-1.35,72.6,0.136516,0.802332,10.0236
17055379,-0.0191748,0.0181095,0.00745685,19.65,-1.65,72.45,0.00958008,0.871787,9.87752
17078203,-0.00958738,0.0149137,0.00426106,19.5,-4.05,72.9,0.0526904,0.787961,9.92302
17090406,-0.0191748,0.0117179,0.00213053,18.75,-2.55,72.6,0.136516,0.883762,10.0691
17113204,-0.00532632,0.00426106,0.00639159,18.45,-1.35,72.9,0.119751,0.852627,10.0068
17125372,0.00852211,0.0191748,0.00639159,18.6,-2.4,71.7,0.0191602,0.902922,10.0404
17148205,-0.0245011,0.0223706,0.00852211,19.5,-2.55,72.9,0.138911,0.787961,9.94458
17160376,-0.0191748,0.00745685,0.00745685,19.05,-2.7,73.5,0.285007,0.775986,9.84399
17183203,0.00532632,0.00426106,0.00745685,18.45,-2.1,72.6,0.0598755,0.934058,10.0739
17196374,-0.0213053,0.0191748,0.00426106,17.7,-1.8,72.9,-0.0287402,0.902922,10.0859
17219216,-0.015979,0.00639159,0.00106526,18.75,-2.1,72.9,0.0838257,0.811912,9.88949
17232377,-0.0106526,-0.00532632,0.00213053,20.25,-2.1,72.9,0.174836,0.799937,10.026
17245374,-0.00852211,0.02024,0.0127832,19.2,-2.1,74.25,0.126936,0.905317,9.9829
17268204,0.0138484,0.0191748,0.0117179,17.4,-2.55,72.9,0.172441,0.883762,9.90865
17281382,-0.00958738,0.015979,0.0117179,18.75,-1.05,72.9,0.0958008,0.821492,9.89668
17304203,-0.0330232,-0.00426106,0.00319579,21,-2.85,72.9,0.138911,0.852627,9.9326
17317376,-0.00532632,0.0149137,0.00852211,18.6,-1.2,73.05,0.0958008,0.857417,9.99966
17340216,-0.00213053,0.015979,0.00745685,18.15,-2.1,72.15,0.172441,0.905317,10.0332
17353378,-0.00319579,0.00958738,0.0138484,17.55,-1.65,73.05,0.162861,0.787961,9.91584
17376203,0.00426106,0.0191748,0.00532632,18.15,-4.05,73.65,0.0574805,0.828677,9.89189
17389383,-0.00213053,0.00639159,0.00532632,19.05,-2.7,72.75,0.0383203,0.931663,10.0116
17402381,0.00106526,0.00213053,0.00532632,19.2,-2.1,72.9,0.0790356,0.881367,10.0667
17425203,-0.0106526,0.00852211,0.00532632,18.75,-2.85,72.6,0.179626,0.847837,10.0332
17437376,-0.00958738,0.0127832,0.00639159,20.25,-3.3,73.2,0.0574805,0.747246,9.87273
17460216,0.00639159,0.00639159,0.00958738,19.2,-2.1,73.65,0.184417,0.895737,9.82722
17473378,-0.0181095,0.00852211,0.00639159,19.2,-1.35,73.65,0.208367,0.864602,9.95655
17496203,-0.02024,0.00958738,0.00426106,19.2,-2.1,73.2,0.0670606,0.864602,10.0045
17508377,0.00532632,0.00852211,0.00532632,18.3,-1.2,72.75,0,0.886157,10.0787
17531210,-0.0106526,0.0127832,0.0106526,19.2,-1.8,72.6,0.114961,0.838257,9.96374
17544378,0.00532632,0.00958738,0.00852211,19.5,-3.6,72.6,0.174836,0.809517,9.82243
17567203,-0.00106526,0.0106526,0.00852211,17.85,-2.7,72.75,0.134121,0.869392,9.97811
17579381,-0.0213053,0.00426106,0.00319579,18.3,-0.9,72.75,0.0790356,0.799937,9.99727
17602203,0.00319579,0.0138484,0.00639159,18.75,-2.1,72.6,0.134121,0.828677,9.90147
17615376,-0.00106526,0.0138484,0.00532632,19.05,-3,72,0.0383203,0.840652,10.0428
17628377,-0.0149137,0.0127832,0.00958738,19.5,-2.1,72.9,0.227527,0.787961,9.94697
17651210,0.0287621,0.00319579,0.0117179,19.65,-1.65,73.05,0.153281,0.936453,10.0308
17664378,-0.0138484,0.00745685,0.015979,19.2,-1.8,71.55,-0.0526904,0.752036,9.88949
17687203,-0.02024,0.00532632,0,19.2,-1.35,73.2,-0.0167651,0.780776,9.76974
17699381,0.00532632,0.00639159,-0.00106526,18.45,-2.1,72.15,0.0502954,0.711321,9.98769
17722203,-0.0287621,0,0.00426106,17.85,-3.45,73.05,0.280217,0.917293,10.0021
17734376,0,0.00426106,0.00958738,18.15,-2.55,73.2,0.184417,0.890947,9.84159
17757216,0.00319579,0.0308927,0.0138484,19.05,-1.2,72.75,0.0119751,0.886157,10.0188
17770378,-0.0234358,0.00958738,0.00532632,19.65,-1.95,73.05,-0.00239502,0.797542,9.97332
17793203,-0.00213053,-0.00639159,0.00319579,19.65,-1.95,72,0.0694556,0.814307,9.89189
17806376,0.0170442,0.0127832,0.00745685,18.15,-3.3,73.95,0.0407153,0.910107,10.0356
17829209,-0.0181095,0.0191748,0.0106526,19.5,-2.85,72.15,0.170046,0.787961,9.93021
17842379,-0.00213053,0.00745685,0.00745685,19.95,-3.3,73.95,0.193997,0.787961,9.86794
17855376,-0.00213053,0.00532632,0.0117179,19.5,-2.1,73.2,0.0718506,0.876577,9.96374
17878216,-0.0170442,0.0138484,0.00426106,19.65,-1.95,72.45,0.0550855,0.862207,9.87512
17891377,-0.00745685,0.00745685,0.00852211,18.6,-1.65,73.8,0.148491,0.852627,9.99008
17914203,-0.00426106,0.00639159,0.00852211,20.25,-2.1,72.9,0.0574805,0.826282,10.05
17926376,-0.00958738,0.0170442,0.00958738,18.75,-1.8,73.95,0.0479004,0.809517,9.92542
17949209,0.00745685,0.0117179,0.00852211,18.3,-3,73.05,0.124541,0.862207,9.89189
17962379,-0.0255663,0.00745685,0.00213053,19.35,-0.9,72.45,0.117356,0.845442,10.0045
17985203,-0.0213053,0.00319579,-0.00213053,18.6,-1.95,72,-0.00958008,0.845442,10.0021
17997381,0.00426106,0.0117179,0.00639159,20.55,-2.55,72.9,0.0718506,0.828677,10.0308
18020203,-0.00532632,0.015979,0.00426106,19.35,-1.65,72.45,0.155676,0.917293,9.97571
18032377,-0.0138484,0.0127832,0.00745685,18.45,-2.1,72.15,0.138911,0.835862,9.91105
18055216,0,0.0149137,0.00745685,19.5,-2.55,73.95,0.146096,0.888552,10.0428
18068377,-0.0138484,0.015979,0.00852211,18.75,-3.3,73.95,0.141306,0.840652,10.0284
18091203,-0.0106526,0.0117179,0.0106526,18.6,-2.4,72.45,0.0958008,0.883762,9.93979
18104377,0,0.00958738,0.00532632,17.25,-1.95,73.05,0.0359253,0.883762,9.9326
18117381,-0.00958738,0.00532632,-0.00319579,19.5,-2.1,73.2,0.0287402,0.878972,9.93021
18140203,-0.00639159,0.0106526,-0.00106526,18.75,-1.8,73.65,0.0958008,0.874182,9.97092
18152376,-0.00639159,0.0117179,0.00745685,20.7,-2.7,73.5,0.165256,0.838257,9.95895
18175216,-0.00532632,0.00532632,0.00639159,19.95,-2.55,73.95,0.253872,0.917293,9.94937
18188378,0,0.0117179,0.00745685,18.75,-3.3,72.9,0.177231,0.847837,10.0332
18211203,0.00106526,0.0181095,0.0138484,18.75,-3.3,73.95,0.0742456,0.881367,10.014
18224376,0.00319579,0.00745685,0.0127832,18.3,-2.4,73.8,0.0479004,0.871787,9.88231
18247209,-0.00532632,0.00639159,0.00745685,19.5,-1.35,72.9,-0.0167651,0.890947,9.99008
18260379,-0.00745685,0.00319579,0.00532632,19.05,-1.95,73.05,0.0574805,0.843047,9.92302
18283203,-0.00426106,0.00745685,0.00319579,18.75,-2.85,72.6,0.126936,0.869392,9.94458
18295381,-0.0127832,0.0106526,0.00106526,19.05,-2.7,72.75,0.165256,0.826282,9.97332
18318203,-0.00639159,0.0127832,0.0138484,19.95,-1.8,73.65,0.189207,0.857417,10.0164
18331377,0.00106526,0.00639159,0.00958738,18.45,-2.85,72.6,0.126936,0.775986,10.0452
18344376,-0.00106526,0.015979,0.0117179,19.2,-1.8,72.6,0.114961,0.828677,9.92781
18367209,0.00106526,0.00532632,0.0117179,18.75,-2.85,71.55,0.0958008,0.835862,9.935
18380378,0.00319579,0.00958738,0.00852211,17.7,-2.55,73.2,0.105381,0.862207,9.96134
18403203,-0.0106526,0.0138484,0.0106526,19.2,-1.8,71.1,0.0886157,0.859812,9.93739
18415377,-0.00852211,0.00745685,0.00745685,18.75,-1.35,73.65,0.134121,0.816702,9.92063
18438203,-0.00426106,0.00213053,0.00426106,18.3,-1.2,73.05,0.0742456,0.852627,9.96374
18450376,-0.00426106,0.00852211,0.00852211,18.15,-3.6,72.6,0.203577,0.799937,10.0045
18473253,-0.00213053,0.0117179,0.00745685,18.3,-2.4,72.45,0.179626,0.843047,9.95416
18486379,0.00532632,0.015979,0.0127832,17.7,-3.3,72.9,0.0934058,0.787961,9.95655
18509203,0.0191748,0.00213053,0.0149137,19.35,-1.2,72.75,0.337698,0.320933,10.1841
18521376,0.052198,-0.0298274,0.0330232,19.05,-2.7,73.5,0.0766406,0.570015,11.178
18544203,-0.0149137,0.00958738,0.0245011,19.2,-2.85,71.85,-0.474214,-0.124541,10.2272
18556377,0.160855,0.00532632,0.0245011,17.55,-2.4,74.1,0.0742456,1.6837,10.0931
18579203,-0.105461,-0.0149137,-0.0149137,17.25,-1.95,72.45,-0.0981958,0.835862,9.42725
18591416,-0.275903,-0.00852211,-0.0340885,18.15,-1.8,71.85,-0.220342,0.687371,10.0236
18614203,-0.22051,-0.0862864,-0.0351537,19.05,-1.2,73.05,-0.0191602,0.61073,10.414
18626377,0.0980043,-0.00426106,0.0255663,19.5,-2.55,73.2,-0.490979,0.795147,10.8691
18649203,0.110787,0.04048,0.0458064,19.35,-2.4,72.75,0.378413,0.986748,10.2104
18662381,-0.0223706,-0.0255663,0.00213053,18.3,-1.2,73.5,0.289797,0.821492,9.06082
18675376,-0.00852211,0,-0.015979,18.45,-2.1,71.85,0.158071,0.819097,9.4512
18698203,-0.0149137,0.0276969,-0.0245011,18.6,-3,73.05,0.00239502,1.04902,10.3901
18710411,-0.0500674,0.0149137,-0.0255663,18.45,-1.05,72.6,-0.198787,0.871787,10.1841
18733203,0.0234358,-0.0106526,-0.0255663,17.4,-1.8,72.9,0.00958008,0.845442,9.97811
18745373,0.0181095,0.00852211,-0.0340885,18.45,-1.35,72.15,0.0431104,0.936453,10.038
18768208,-0.0127832,0.0223706,-0.0234358,19.2,-1.8,72.9,0.320933,0.795147,9.73382
18781380,-0.0127832,-0.00639159,-0.0266316,19.05,-3,72.45,0.251477,0.823887,9.8847
18804203,-0.00213053,0.0127832,-0.0181095,18.45,-2.1,72.9,-0.143701,0.811912,10.1386
18817373,-0.00745685,0.0181095,-0.0234358,17.55,-0.9,72.75,0.0574805,0.728086,10.05
18840216,0,-0.00426106,-0.0213053,15.9,-1.35,73.65,0.155676,0.766406,9.93979
18853378,-0.00745685,0,-0.0245011,17.85,-3,72,0.146096,0.713716,9.89189
18876203,-0.02024,0.0106526,-0.015979,19.2,-0.6,72.9,0.258662,0.706531,9.89668
18888378,0.00852211,0.0181095,-0.0170442,19.35,-2.7,72.75,0.148491,0.680186,10.0021
18911210,-0.0234358,0.00532632,-0.015979,19.2,-2.55,71.85,0.112566,0.65384,9.99008
18924378,0.00106526,0.0149137,-0.015979,18.3,-1.65,72.75,-0.00718506,0.6251,9.94458
18937376,-0.00106526,0.0191748,-0.0191748,18.45,-1.05,71.55,0.0646655,0.677791,10.0715
18960216,-0.0308927,0.0106526,-0.0191748,18.15,-1.8,71.55,0.107776,0.58678,9.96853
18973378,-0.00213053,0.0138484,-0.0170442,18.6,-1.65,72.45,0.0119751,0.64426,9.94458
18996203,0.00213053,0.00745685,-0.0127832,17.85,-1.65,73.05,0.0574805,0.574805,9.99966
19008377,-0.00745685,0.0149137,-0.0138484,19.2,-1.05,72.6,0.150886,0.608335,9.9805
19031210,0.00532632,0.0170442,-0.0117179,19.05,-1.65,71.7,0.0790356,0.608335,9.99008
19044378,0,0.015979,-0.0117179,17.85,-1.65,72.75,-0.0407153,0.64426,10.105
19067203,-0.0245011,0.0117179,-0.0149137,19.65,-1.95,72.45,0.0383203,0.627495,9.89428
19079376,0.02024,0.00745685,-0.015979,17.55,-1.65,72.45,0.0335303,0.59157,10.0452
19102203,-0.00426106,0.00426106,-0.015979,19.05,-1.2,72,0.0574805,0.766406,10.1482
19114376,-0.0255663,0.0117179,-0.0170442,19.05,-1.2,72,-0.00479004,0.58199,9.85596
19137216,0.0170442,0.00852211,-0.015979,19.2,-0.3,72.6,0.0167651,0.617915,9.96853
19150378,-0.02024,-0.00106526,-0.0287621,18.15,-2.55,72.6,-0.0407153,0.864602,10.1338
19173203,-0.0340885,0.00426106,-0.0298274,17.85,-0.45,72,0.0622705,0.546064,9.96134
19185376,0.015979,0.0138484,-0.0234358,17.7,-2.85,73.2,0.249082,0.684976,10.0332
19208209,-0.0117179,0.0181095,-0.0234358,19.35,-1.95,72,0.0479004,0.855022,10.208
19221379,-0.00639159,0.0170442,-0.0223706,17.55,-1.95,71.4,-0.0287402,0.742456,9.94937
19234376,0.015979,0.0223706,-0.0298274,18.6,-1.65,71.7,0.0479004,0.826282,10.105
19257216,-0.0585895,0.0106526,-0.0298274,18.75,-0.6,71.85,0.277822,0.735271,9.80806
19270377,0.015979,0.0191748,-0.0266316,18.6,-1.65,70.95,0.186812,0.787961,9.69789
19293203,0.0170442,0.00639159,-0.0170442,19.35,-2.7,71.7,0.0335303,1.14003,10.4835
19306376,-0.1012,0.0170442,-0.0170442,17.25,-0.9,71.4,0.160466,0.799937,9.88949
19329209,0.0713727,0.0191748,0.00958738,18.15,-2.1,71.85,0.232317,0.862207,9.66915
19342379,0.0127832,0.00426106,0.00319579,19.05,-1.95,71.7,0.347278,1.03944,10.3805
19365203,-0.0830906,0.02024,0.015979,19.05,-2.4,70.95,0.366438,0.981958,9.82004
19378381,0.072438,0.0138484,0.0276969,19.5,-1.35,72.15,0.330513,1.06818,9.7913
19391378,0.00852211,0.0223706,0.0308927,18.75,-1.8,70.5,0.294587,1.25739,10.1841
19414203,-0.052198,0.015979,0.0351537,19.05,-0.9,72.75,0.124541,1.06818,9.64041
19427377,0.0532632,0.00532632,0.0458064,19.05,-1.2,72.75,0.205972,1.2023,9.96613
19450209,-0.0234358,0.0106526,0.0479369,18.75,-1.8,72.15,0.301772,1.17116,10.2919
19463378,-0.0308927,0.0181095,0.0639159,18.75,-1.05,72.15,0.404758,0.946033,9.6931
19486203,0.0585895,0.0213053,0.0735032,20.1,-1.95,73.05,0.273032,1.05141,10.0212
19498382,-0.0436758,0.0191748,0.0681769,17.4,-2.1,70.8,0.344883,1.13524,10.0859
19521203,-0.0607201,0.0170442,0.0756338,19.2,-2.1,71.85,0.56283,0.809517,9.50868
19533376,0.0798948,0.0149137,0.0916127,17.7,-1.8,71.55,0.62989,0.989143,10.0715
19556216,-0.0351537,0.0245011,0.105461,18.45,-1.8,71.55,0.701741,1.08973,10.299
19569378,-0.0458064,0.036219,0.113983,18.6,-1.65,70.95,0.622705,0.766406,9.58772
19592203,0.0585895,0.015979,0.124636,18.75,-1.35,71.1,0.60594,1.02986,10.0955
19604376,-0.0500674,0.0340885,0.126766,19.5,-1.8,71.85,0.455054,1.06578,10.0763
19627209,0.00639159,0.0191748,0.129962,19.05,-0.9,72,0.349673,0.871787,9.67634
19640379,0.0596548,0.0170442,0.134223,18.6,-1.2,70.65,0.285007,1.08255,10.2823
19653376,-0.0468716,0.036219,0.12144,18.75,-1.35,70.8,0.277822,1.14242,10.2416
19676216,-0.0245011,0.0213053,0.125701,19.65,-2.7,70.35,0.428709,0.950823,9.8871
19689377,0.0426106,0.0330232,0.135289,19.2,-2.1,72.6,0.0526904,0.991538,10.1937
19712203,-0.00745685,0.0500674,0.135289,17.7,-2.55,70.05,0.419128,0.871787,9.81764
19724376,-0.0276969,-0.00958738,0.126766,18.75,-3.3,70.8,0.498164,0.814307,9.41767
19747209,0.00639159,-0.0117179,0.132093,18.3,-1.65,71.4,0.143701,0.819097,10.1649
19760379,-0.036219,0.0596548,0.136354,19.95,-1.05,71.1,0.107776,0.807122,10.22
19783203,0.0308927,0.0372843,0.147006,20.1,-2.7,71.7,0.313748,0.622705,9.76495
19795381,0.0170442,-0.00745685,0.135289,18.75,-1.05,71.55,0.146096,0.890947,10.244
19818203,-0.0106526,0.0149137,0.135289,18.75,-2.55,70.8,0,0.589175,9.95176
19831377,0.0809601,0.0468716,0.140615,19.05,-0.9,71.7,0.0359253,0.740061,9.93739
19844376,-0.0298274,0.0117179,0.123571,19.5,-1.8,71.1,0.258662,0.821492,10.0212
19867209,-0.0479369,0.00745685,0.106526,18.6,-1.65,70.35,-0.0766406,0.598755,9.76735
19880378,0.0138484,0.0319579,0.111853,20.25,-1.35,71.1,-0.0670606,0.60594,10.0979
19903203,0,0.0149137,0.103331,19.5,-0.3,71.55,-0.0526904,0.579595,10.0308
19915382,0.0181095,-0.00745685,0.0980043,19.65,-1.2,69.6,0.129331,0.668211,9.94458
19938203,0.015979,0.0106526,0.0820254,19.05,-2.4,70.65,0.00479004,0.64905,10.1003
19951376,-0.0490022,0.0234358,0.0756338,18.6,-2.4,70.35,0.110171,0.6251,9.94697
19974216,0.00639159,0.02024,0.0628506,19.5,-0.3,70.05,-0.134121,0.486189,9.98769
19987378,-0.00639159,-0.00958738,0.0490022,19.35,-0.45,70.65,-0.102986,0.632285,10.1961
20010203,-0.02024,0.015979,0.0415453,18.6,-2.4,70.35,-0.124541,0.495769,9.81285
20022376,-0.00745685,0.00745685,0.0191748,19.5,-0.3,70.05,-0.0215552,0.61552,9.80327
20045209,-0.0149137,0.00213053,0.0191748,18.6,-1.65,70.65,-0.282612,0.608335,10.0859
20058379,0.0117179,0.00852211,0.00532632,19.65,-1.95,70.95,-0.299377,0.65384,10.2464
20071376,-0.0479369,-0.0191748,-0.00852211,18.3,-1.95,69.3,-0.119751,0.560435,9.96853
20094216,0.052198,0.00852211,-0.00532632,18.45,-0.6,70.8,-0.371228,0.505349,10.1553
20107377,0.00106526,0.0127832,-0.00852211,19.2,-2.1,70.05,0.0119751,0.797542,10.1817
20130203,-0.0628506,-0.00106526,-0.0255663,19.95,-0.6,70.05,0.0550855,0.61552,9.82483
20142376,0.00106526,0.00213053,-0.0298274,19.2,-0.3,68.7,-0.0239502,0.555645,10.0045
20165209,-0.0319579,0.00319579,-0.0372843,18.75,-0.6,71.1,-0.229922,0.752036,9.97811
20178379,-0.0308927,-0.0117179,-0.0372843,19.95,-1.05,69.75,0.395178,0.637075,9.65718
20201203,0.0543285,-0.0245011,-0.0330232,18.6,-0.45,70.95,-0.294587,0.859812,10.2751
20213381,0.0127832,0.0394148,-0.0266316,19.5,-0.6,70.8,-0.117356,0.862207,10.5721
20236203,-0.0862864,0,-0.0255663,19.35,-0.15,69.6,0.277822,0.421523,9.02489
20248377,0.173638,-0.00958738,-0.00106526,17.7,-2.1,69.75,0.249082,0.517324,9.6955
20271238,0.0607201,-0.00213053,-0.00319579,19.05,-0.9,69.9,-0.296982,1.12566,11.0463
20284377,-0.136354,0.0117179,-0.00958738,18.3,-1.2,69.3,0.117356,0.725691,9.51587
20307203,0.137419,0.0170442,0.00639159,18.3,-0.15,69.6,-0.0574805,0.883762,10.1218
20320377,-0.18216,0.00426106,-0.015979,17.85,-0.9,69.6,-0.105381,0.850232,10.5984
20333381,-0.0916127,0.02024,0.00639159,20.4,-2.7,70.65,-0.289797,0.332908,9.02968
20356203,0.313188,0.00958738,0.0213053,19.65,-0.15,70.65,-0.220342,0.953218,10.5146
20369376,-0.136354,0.0149137,-0.0117179,20.25,-2.1,69,0.0574805,1.0083,10.4667
20392240,-0.156594,0.0266316,-0.0298274,19.35,-0.45,69.6,-0.0814307,0.414338,8.60337
20405378,0.127832,0.00852211,-0.0276969,17.85,-0.9,69.3,-0.0143701,0.814307,10.2607
20428203,-0.0884169,0.0213053,-0.0266316,18.75,-0.3,70.8,-0.263452,1.03704,10.7661
20440376,-0.00852211,0.0223706,-0.036219,20.25,1.05,69,-0.119751,0.778381,9.86554
20463209,0.00852211,0.00852211,-0.0511327,19.35,-1.2,69.3,0.0598755,0.809517,9.70029
20476379,0.0255663,0.00426106,-0.052198,20.25,0.3,70.5,0.340093,1.02507,9.82243
20499203,-0.115049,0.015979,-0.0607201,19.5,-2.1,69,0.220342,0.713716,9.51108
20511515,0.02024,-0.0340885,-0.0447411,19.35,-0.9,68.55,0.299377,0.368833,9.36259
20534203,0.0735032,-0.00532632,-0.04048,19.5,-1.35,69,0.153281,1.04423,10.596
20546376,-0.13955,0.0553937,-0.0415453,19.35,-0.9,68.55,-0.191602,0.603545,10.0883
20569204,0.0660464,0.00532632,-0.0319579,19.35,-1.65,68.55,0.114961,0.565225,9.4057
20582379,0.13955,-0.0383495,-0.0276969,19.05,-1.65,68.25,0.347278,0.859812,10.8451
20595374,-0.0820254,0.0394148,-0.0266316,19.05,-0.45,68.85,0.201182,0.632285,9.54461
20618204,0.0830906,0.0447411,-0.0276969,19.95,-0.3,67.65,0.179626,0.308958,8.81413
20630446,-0.052198,-0.0191748,-0.052198,20.7,-1.2,67.2,0.495769,0.598755,9.65239
20653209,-0.145941,-0.0181095,-0.0500674,19.95,0,69.45,-0.0119751,0.546064,10.2344
20665350,0.02024,0.0117179,-0.0266316,17.85,-1.65,67.2,-0.308958,0.529299,10.1074
20688211,0.0660464,-0.02024,-0.02024,19.35,-1.65,67.5,0.196392,0.931663,10.7206
20700384,-0.117179,0.0106526,-0.0191748,18.15,0,67.95,0.517324,0.431104,9.19494
20723203,0.256729,-0.0191748,0.0117179,19.65,-0.9,69.3,0.265847,0.692161,10.3613
20735376,-0.0798948,0.0213053,0,19.05,-0.45,66.75,0.244292,1.08973,10.2919
20758219,-0.0681769,0.00213053,-0.00532632,18.6,-0.45,68.55,0.263452,0.359253,8.6369
20771377,0.22264,-0.0319579,-0.00426106,18.75,0,68.4,0.0718506,1.06339,10.8331
20794203,-0.223706,0.02024,-0.0138484,20.1,0.45,67.5,0.58678,1.01549,9.86794
20806377,0,0.00106526,-0.0117179,18.45,-1.35,69,0.184417,0.268242,9.03926
20829209,0.0436758,-0.0245011,-0.0138484,19.05,-0.45,67.8,-0.100591,0.953218,10.0524
20842378,-0.0958738,0.0191748,-0.0223706,18.6,-0.15,67.8,0.471819,0.943638,10.1338
20865203,-0.0617853,-0.0234358,-0.0149137,19.05,-0.15,68.25,0.423918,0.969983,10.0691
20877382,-0.0468716,0.0436758,0.00639159,18.45,-0.6,67.95,-0.160466,0.766406,9.48952
20900203,0.134223,0.0735032,0.00319579,19.5,-1.35,67.35,-0.342488,0.804727,9.78172
20912376,-0.0351537,-0.0340885,-0.036219,17.7,-1.35,67.95,-0.100591,0.881367,10.0068
20935216,0.00745685,0.00213053,-0.0479369,19.05,-0.9,67.5,-0.356858,0.687371,9.81046
20948378,0.00213053,-0.0127832,-0.0500674,19.65,-0.15,66.75,-0.0383203,1.06578,9.99966
20961374,0.0468716,-0.00852211,-0.052198,20.25,1.05,67.35,0.308958,1.15919,10.6319
20984203,-0.178964,0.0713727,-0.0351537,19.95,-0.3,67.65,0.486189,0.855022,9.82722
20996376,-0.0266316,0.0127832,-0.0245011,17.85,-0.15,67.2,0.328118,0.251477,9.01292
21019203,0.116114,-0.0319579,-0.0223706,19.2,-0.3,67.95,-0.0814307,1.15919,10.0931
21031377,-0.0500674,0.0372843,-0.0298274,19.2,-0.6,67.05,-0.543669,1.02746,10.814
21054246,-0.177899,0.0330232,-0.0458064,19.05,-0.45,67.8,-0.210762,0.60594,9.23326
21067378,0.104396,-0.0181095,-0.0308927,19.65,-0.45,67.8,0.177231,0.730481,9.53743
21090203,-0.137419,-0.0447411,-0.0383495,19.65,0.9,66.45,0.138911,0.749641,10.0164
21103377,0.111853,-0.0479369,-0.00852211,19.35,-0.45,66.45,-0.0143701,0.584385,9.79848
21126203,0.0937433,0.00106526,-0.0170442,17.55,0.45,66.45,0.213157,1.02986,10.2775
21139376,-0.0948085,0.02024,-0.0287621,18.45,0.3,67.05,0.64426,0.974773,9.42725
21162203,-0.0884169,-0.02024,-0.0351537,19.95,-0.6,67.05,0.673001,0.855022,9.90386
21174422,-0.00319579,-0.00532632,-0.02024,18.75,-1.35,67.35,0.174836,0.883762,10.517
21197203,-0.0234358,0.0415453,-0.00213053,19.05,0.9,66.15,-0.114961,1.07057,10.2296
21210376,0.127832,0.0138484,-0.0266316,18.6,-0.15,67.5,-0.507744,1.34121,10.3038
21223376,0.0735032,0.0330232,0.00745685,19.5,-0.6,67.35,0.0239502,1.152,11.075
21246209,-0.269512,0.0383495,-0.00532632,19.95,-1.05,67.35,1.11847,0.244292,10.6822
21259379,-0.0703075,-0.0340885,-0.00639159,19.2,-2.55,69,1.56395,-0.0143701,8.86442
21282203,0.251402,0.11931,0.0671117,18.3,0.9,65.7,0.785566,1.36516,9.27158
21295381,-0.170442,0.0735032,0.00106526,18.75,0,66.6,0.136516,1.72681,9.73382
21318203,-0.317449,-0.0234358,0.0181095,19.5,0,67.65,-0.237107,0.910107,9.3099
21330377,-0.00958738,-0.0511327,-0.00426106,20.25,0.3,66.6,0.146096,1.18314,10.05
21353242,0.150202,0.0500674,0.110787,19.5,0.3,66.6,-0.696951,0.981958,10.2727
21366377,-0.469782,-0.174703,0.135289,19.05,0.9,68.55,4.12422,2.48603,11.0535
21389203,-1.975,-0.26099,-0.0245011,18.6,-0.45,66.15,0.6251,-0.936453,8.47643
21401377,-1.33052,-0.226901,-0.134223,19.5,0.6,67.35,-2.34233,-3.39135,8.83808
21424203,0.470847,0,0,20.55,-1.05,66,-0.0862207,1.95913,11.6331
21436376,0.243946,-0.147006,0.02024,19.65,-0.15,66.45,-0.637075,0.802332,11.4415
21459203,-0.294013,0.109722,-0.036219,20.7,-0.45,66.15,1.02746,0.687371,9.34582
21471414,-0.309992,-0.0596548,-0.0948085,18.15,0,66,0.102986,-0.213157,7.77469
21494203,0.197074,-0.0873517,-0.125701,19.05,-0.15,65.1,-0.500559,0.886157,11.2834
21506376,-0.154463,0.0532632,-0.0948085,18.3,-0.15,66.45,-0.371228,1.19272,11.1445
21519675,-0.134223,0.00745685,-0.122505,18.6,-0.9,65.7,-0.0215552,0.419128,8.1076
21542222,0.124636,-0.0607201,-0.135289,20.25,-1.35,65.25,0.122146,0.845442,9.27637
21555379,-0.16192,-0.0415453,-0.154463,19.05,0.45,64.65,-0.0910107,1.32205,11.0463
21578203,-0.036219,0.0287621,-0.109722,19.5,-1.35,66,-0.0311353,0.893342,9.88949
21590401,0.122505,-0.0319579,-0.0884169,18.75,0,67.65,0.622705,1.23823,9.6955
21613204,0.015979,-0.0298274,-0.0916127,18.3,-0.45,66.75,0.122146,1.26936,9.92302
21625372,0.0276969,0.0298274,-0.0639159,19.35,-0.15,65.7,0.294587,1.17116,10.1553
21648207,-0.0223706,-0.0149137,-0.0383495,18.45,0.3,64.95,0.847837,1.12805,9.91823
21660376,0.0106526,-0.0117179,-0.00532632,19.05,-0.45,66.15,0.179626,1.36995,10.0092
21683203,-0.0308927,0.0458064,0.0138484,19.2,-0.3,66,0.105381,1.27894,9.76016
21695374,0.0585895,0.00106526,0.0266316,19.95,0,66,0.692161,1.36516,9.97332
21718216,-0.0319579,-0.00319579,0.0479369,18.6,-0.15,65.4,0.792751,1.40827,10.3254
21731377,-0.0649811,0.0585895,0.0756338,19.05,-2.7,65.1,0.373623,1.24781,9.50868
21754203,0.128897,0.0713727,0.0894822,19.5,-0.3,66.6,0.0383203,1.3484,10.0404
21767377,-0.0862864,-0.00532632,0.0649811,19.65,-0.45,65.1,0.0646655,2.08367,10.2559
21790209,0.02024,-0.00213053,0.0990696,19.35,-0.9,66.45,-0.198787,1.12805,9.04405
21803378,0.257794,0.0830906,0.125701,17.85,-0.15,65.7,0.404758,1.6358,9.3578
21816376,-0.177899,-0.0191748,0.0490022,19.95,-1.35,66,0.368833,1.48491,10.0667
21839216,-0.151268,-0.0394148,0.0543285,20.1,0.15,65.7,-0.347278,1.20709,9.99248
21852378,0.107592,0.0639159,0.072438,20.1,-0.15,65.7,-0.153281,1.36037,10.2871
21875203,0.0287621,0.0255663,0.0798948,20.25,-1.8,66,0.344883,1.58071,10.1122
21887376,-0.129962,-0.0234358,0.0468716,19.2,-1.05,66.6,0.172441,1.22625,9.46078
21910210,0.056459,0.0287621,0.0596548,19.5,0,66,-0.249082,1.32924,9.85117
21923378,0.0149137,0.0511327,0.0575243,19.2,-1.05,66,-0.114961,1.4897,10.2511
21946203,-0.092678,-0.0245011,0.0330232,19.2,-1.05,65.55,0.170046,1.21667,9.63323
21958381,0.0479369,-0.0106526,0.0351537,19.05,-0.9,65.7,-0.268242,1.25499,9.97092
21981203,-0.0191748,0.036219,0.0276969,18.75,0,65.25,0.0550855,1.36037,10.1721
21993377,-0.0553937,-0.00106526,0.0181095,19.2,-0.3,64.2,0.301772,1.31966,9.58772
22016216,0.0106526,-0.00639159,0.00852211,18.75,-0.6,65.25,-0.0335303,1.2502,9.91344
22029377,-0.00639159,0.0298274,0.00958738,18.45,0,65.55,-0.146096,1.38911,10.0811
22052203,-0.0223706,0.00639159,0.00213053,20.25,-1.05,66.6,0.191602,1.23823,9.77693
22065377,0.00213053,-0.00426106,0.00213053,19.65,-1.2,65.4,0.208367,1.32684,9.8847
22078381,-0.015979,0.02024,0.00958738,19.5,-2.1,66.3,0.102986,1.37474,10.0092
22101203,-0.0181095,0.0191748,0.0117179,19.35,-0.15,65.7,0.124541,1.17116,9.77214
22113376,0.00213053,-0.00106526,0.00426106,17.85,-0.9,66.15,0.0742456,1.14961,9.82243
22136216,-0.0181095,0.00532632,0.00213053,19.35,-0.45,66.45,0.0239502,1.04902,10.0835
22149378,-0.0372843,0.0191748,0.00319579,19.2,-1.35,65.25,0.0742456,0.790356,10.129
22172203,-0.0170442,0.00852211,-0.00106526,19.5,-1.35,66,0.0383203,0.773591,9.85836
22184376,0.0287621,0.0127832,-0.00106526,18.45,-0.6,66,-0.112566,0.881367,10.1218
22207209,-0.0298274,0.00639159,-0.0138484,19.65,-1.2,65.7,-0.0718506,0.771196,9.91105
22220379,0.0117179,0.00532632,-0.0223706,19.2,-0.6,65.25,0.0718506,0.749641,9.76495
22243203,-0.00213053,0.00319579,-0.0266316,18.6,-0.15,64.35,0.105381,0.886157,10.0979
22255381,-0.0308927,0.0138484,-0.0330232,19.05,-0.15,66.15,0.0886157,0.809517,9.97811
22278203,0.0149137,0.00852211,-0.0223706,19.35,-0.9,64.35,0.124541,0.773591,9.89428
22291377,0.00532632,0.00213053,-0.0213053,19.2,0,64.95,0.143701,0.929268,10.014
22314216,-0.0223706,0.0117179,-0.0149137,19.5,-0.3,65.25,0.225132,0.711321,9.88949
22327377,0.0308927,0.0117179,-0.00852211,19.35,-0.45,64.65,0.122146,0.584385,9.90626
22340376,0.0340885,0.0138484,-0.00426106,19.35,-1.95,64.65,0.0359253,0.773591,10.2032
22363203,0.0138484,0.00852211,-0.00852211,20.1,-1.95,64.05,0.0550855,0.871787,10.1098
22375382,-0.0223706,0.00426106,-0.0106526,18.75,-1.05,64.2,0.0958008,0.924478,9.85357
22398203,0.00426106,0.00426106,-0.00532632,18.6,-1.95,65.4,0.174836,0.699346,9.75777
22410376,-0.18003,-0.0319579,-0.0330232,20.7,-1.65,66.15,0.311353,0.946033,9.28116
22433240,-0.0735032,-0.0276969,-0.0266316,19.95,0,64.5,0.122146,0.481399,9.22368
22446378,0.0287621,-0.0447411,0.0223706,19.65,-1.65,64.65,0.270637,0.668211,10.2679
22469203,-0.0138484,-0.0255663,0.0255663,20.1,-0.9,66.75,-0.0167651,0.747246,10.723
22481376,0.0340885,-0.0255663,0.0532632,19.5,-1.8,66,-0.129331,0.548459,10.4068
22505210,0.0617853,0.0181095,0.0596548,19.05,-0.9,65.1,0.220342,0.500559,10.038
22518379,-0.00852211,0.0138484,0.0511327,19.95,0.6,64.5,0.409548,0.514929,9.77932
22541203,-0.036219,-0.0287621,0.0415453,19.65,-0.15,66.15,0.210762,0.462239,9.73382
22553399,0.00106526,0.0170442,0.0426106,18.75,0.3,65.25,-0.155676,0.450264,10.1649
22566678,0.00213053,0.0213053,0.0340885,17.85,-1.65,65.7,-0.0550855,0.445474,10.2392
22589203,0.00426106,0.00213053,0.0181095,19.05,-0.9,65.1,-0.0263452,0.328118,10.0931
22602377,0.00319579,0.0117179,0.00319579,20.1,-0.9,65.1,-0.126936,0.387993,10.0284
22625209,-0.0213053,0.0127832,-0.00106526,17.85,-0.15,65.1,0.0670606,0.232317,9.8368
22638378,-0.00852211,0,-0.00319579,17.1,-1.8,66,0.201182,0.294587,9.93979
22661203,-0.00106526,0.00106526,0.00532632,17.4,0.6,64.5,0.229922,0.347278,10.0931
22674377,-0.0213053,0.0117179,0.00852211,19.65,-0.15,65.1,0.179626,0.316143,10.038
22697203,-0.0106526,0.0213053,0.0127832,19.5,-1.05,65.25,0.100591,0.347278,9.87273
22709376,-0.00639159,0.0106526,0.00852211,19.95,-1.05,65.55,0.0359253,0.342488,9.86554
22732249,0.0127832,0.00426106,0,19.05,-0.9,65.4,0.0718506,0.356858,10.1338
22745379,-0.0213053,-0.00106526,0.00319579,18.45,-0.6,64.95,0.146096,0.450264,10.232
22758373,-0.0383495,0.00319579,0.00319579,19.2,0,64.95,0.110171,0.261057,9.86554
22781203,0.0117179,0.02024,0.00745685,19.65,-0.45,64.65,0.268242,0.330513,9.95416
22794406,-0.0351537,0.0181095,0.00639159,18.75,-0.6,65.25,0.0287402,0.522114,10.1386
22817203,0.02024,0.0287621,0.00639159,20.4,-1.2,65.4,-0.0718506,0.534089,10.3781
22829374,-0.0308927,0.0276969,0.00319579,19.65,-1.2,65.4,0.0479004,0.632285,10.3853
22852246,-0.0820254,0.00958738,0.00319579,17.55,-1.2,65.4,-0.0502954,0.385598,9.47276
22865377,0.0479369,0.00639159,0.00213053,20.4,-0.9,65.4,-0.287402,0.378413,9.86794
22888203,-0.0127832,0.00639159,-0.00532632,18.75,-0.3,65.25,-0.131726,0.613125,10.3014
22900377,-0.0500674,0.00319579,-0.0106526,18.75,-0.3,65.55,0.174836,0.481399,9.5973
22923222,0.127832,0.00639159,0.00106526,18.45,0,66,0.220342,0.699346,10.3996
22936378,-0.1012,0.0117179,0.00213053,19.35,-1.65,64.65,0.411943,0.713716,10.4068
22959203,-0.0703075,-0.00532632,0.0245011,20.25,-1.35,65.25,0.0622705,0.347278,9.44162
22971413,0.22264,0.0234358,0.0319579,18.3,-0.45,64.05,-0.0790356,0.775986,10.6679
22994203,-0.157659,0.0191748,0.00745685,19.5,-2.85,64.5,0.0239502,0.871787,10.6008
23007373,-0.13955,-0.02024,-0.00745685,18.45,-1.35,64.2,0.270637,0.167651,8.84047
23020374,0.213053,0.0394148,0.00958738,18.45,-1.35,66,-0.0383203,0.428709,9.72663
23043222,-0.0490022,0.00958738,-0.00745685,19.2,-0.6,65.25,0.146096,0.958008,10.7757
23056378,-0.109722,-0.0287621,-0.0106526,18.3,-0.9,65.1,0.105381,0.349673,10.1865
23079203,0.0234358,0.00106526,0.0191748,19.05,-1.2,65.1,0.519719,0.455054,9.96613
23092421,0.0937433,0.0756338,0.04048,18.75,-1.35,65.25,0.347278,0.673001,9.67634
23115203,0.0894822,0.0340885,0.0330232,20.25,-1.8,65.55,0.265847,0.747246,10.3493
23128376,-0.225836,0.0181095,0.00852211,18.45,-1.05,64.5,0.196392,0.593965,9.44162
23151246,0.0585895,0.0287621,0.0276969,18.15,-1.05,64.5,-0.311353,0.241897,9.67394
23164377,0.0553937,-0.00532632,0.0287621,17.7,-1.05,64.95,-0.256267,0.886157,11.2115
23177369,-0.0575243,0.00745685,0.0458064,19.65,-0.45,64.05,0.0694556,0.234712,9.95895
23200203,0.215183,0.0372843,0.0511327,18.3,-1.95,65.4,0.193997,0.6251,9.42246
23222216,0.156594,0.00852211,0.0351537,19.65,-3.75,64.05,-0.0526904,0.960403,10.6631
23235378,-0.15979,0.0213053,0.00745685,19.65,-2.4,64.35,0.0981958,0.819097,10.402
23248371,-0.134223,0.00213053,-0.0170442,18.75,-0.6,64.2,-0.462239,0.598755,9.58053
23271246,0.0692422,0.0479369,-0.0213053,19.05,-2.4,65.1,-0.332908,0.5772,10.6535
23284379,0.00319579,0.0415453,-0.0138484,19.5,-1.35,64.2,-0.170046,0.890947,11.6307
23307203,-0.120375,-0.04048,-0.0223706,19.35,-2.7,65.1,-0.270637,0.189207,8.77341
23319376,0.313188,0.0213053,-0.02024,17.85,-2.4,65.1,0.217947,0.483794,9.22128
23342216,-0.204531,-0.00532632,-0.0575243,18.3,-0.9,64.65,0.438289,0.991538,10.5649
23355379,-0.205596,0.00745685,-0.0436758,18.15,-2.85,64.5,-0.0934058,0.239502,10.0811
23378203,0.168312,0.0106526,0.0106526,17.7,-1.35,63.9,0.162861,0.898132,11.202
23390398,-0.0468716,-0.0479369,-0.00426106,20.7,-1.2,65.4,0.160466,0.725691,9.80567
23413204,0.192813,0.0543285,0.00745685,18.75,-2.55,64.5,-0.0335303,0.457449,9.73861
23426374,0.0596548,0.0436758,-0.0138484,19.35,-2.7,62.55,0.00718506,1.21906,10.4547
23439376,-0.271642,-0.0234358,-0.056459,18.15,-2.85,63.9,0.347278,0.416733,9.00813
23462216,0.134223,-0.0735032,-0.0372843,17.7,-1.35,63.9,0.411943,0.213157,9.741
23475378,0.275903,0.00639159,0.00745685,17.85,-4.5,64.05,-0.0814307,1.54718,12.1193
23498203,-0.34195,0.0905475,-0.0319579,19.35,-2.4,64.65,-0.428709,1.18074,9.76016
23510398,-0.0990696,-0.0255663,-0.0660464,17.85,-1.95,63,0.110171,0.708926,9.25481
23533204,0.00319579,-0.0415453,-0.0575243,18.15,-3.6,63.45,-0.191602,1.22625,11.2594
23546374,-0.152333,0.107592,-0.015979,19.05,-2.4,63,-0.0862207,0.984353,10.4619
23569203,0.190682,0.0213053,-0.00958738,18.6,-3.45,64.05,-0.479004,1.02267,10.529
23581381,0.109722,0.0500674,-0.00745685,19.35,-3.75,62.55,-0.574805,1.14003,11.0271
23604203,-0.113983,0.0617853,-0.0426106,19.05,-2.7,64.65,0.249082,0.593965,8.79018
23616377,-0.0340885,-0.0149137,-0.072438,18.75,-4.05,64.5,0.814307,0.541274,8.57223
23639216,-0.00745685,0.0106526,-0.0649811,17.4,-2.55,63.45,0.366438,0.998723,9.78172
23652377,-0.204531,-0.0681769,-0.0745685,17.4,-3.6,62.85,0.131726,0.744851,10.9122
23675203,-0.112918,-0.0127832,-0.0181095,18.75,-2.55,63.15,-0.232317,0.222737,10.0092
23688386,0.576308,0.0191748,0.0351537,18.15,-2.85,62.85,-0.138911,0.435894,10.0045
23701378,0.132093,-0.0213053,-0.0181095,17.1,-2.85,63.45,0.857417,1.09213,10.4284
23724203,-0.550742,-0.0266316,-0.0735032,16.2,-3,61.95,0.931663,0.105381,7.77229
23736373,0.0500674,0.00426106,-0.0308927,18.45,-2.55,61.8,0.787961,0.261057,9.42007
23759216,-0.0532632,-0.056459,-0.0106526,17.55,-2.7,63,-0.186812,1.0083,10.8212
23772378,-0.332363,0.02024,-0.0245011,18.3,-4.2,63.3,0.632285,0.481399,9.00094
23795203,0.0415453,0.00639159,0.0255663,19.05,-3.75,63.6,0.354463,-0.0383203,8.62732
23808382,0.327036,0.0223706,0.0649811,17.4,-3.3,61.35,0.114961,1.73399,11.5157
23831210,-0.416518,0.0617853,0.0106526,17.7,-3.3,63.45,0.275427,0.661025,9.5973
23844378,-0.056459,0.0276969,0.00958738,16.2,-3.75,61.2,-0.347278,0.258662,7.31485
23867203,0.245011,-0.0117179,-0.00532632,18.75,-4.35,61.8,-0.251477,1.54718,10.7349
23879376,-0.630637,-0.0213053,-0.0628506,17.7,-2.85,62.85,0.366438,1.11368,9.4057
23902203,-0.205596,-0.015979,-0.0287621,18.6,-4.5,62.55,-0.0287402,0.155676,8.50278
23914376,0.199204,0.0330232,0.0191748,17.25,-4.2,60.9,-0.543669,0.749641,10.0547
23927675,0.174703,0.0394148,0.0223706,17.1,-4.8,62.85,-0.165256,1.07776,11.4702
23950203,-0.328101,-0.00958738,-0.0319579,18.3,-4.5,61.95,0.474214,0.450264,8.69198
23962379,-0.144876,-0.0308927,-0.0585895,18.3,-3,60.9,0.217947,0.759221,7.70523
23985203,0.238619,0.00426106,-0.0351537,17.55,-2.7,61.2,-0.191602,1.36516,12.0857
23998381,-0.42504,0.0181095,-0.0117179,18.6,-3,61.5,1.21667,0.579595,8.79736
24021203,-0.0937433,-0.0245011,-0.0170442,17.55,-3,61.95,0.150886,-0.407153,6.37121
24033377,0.427171,-0.0607201,-0.0191748,16.8,-5.25,61.5,0.447869,0.938848,11.0032
24056216,-0.354733,0.0607201,-0.00106526,16.65,-4.35,61.05,0.304167,1.12326,11.4223
24069377,-0.254598,-0.0340885,0,18.15,-4.05,59.7,0.270637,-0.253872,7.53998
24092203,0.349407,0.0735032,0.0575243,16.5,-4.95,60.15,0.205972,0.510139,8.69677
24105377,0.372843,0.02024,0.0681769,17.55,-4.95,60.9,0.0167651,1.16158,12.5528
24128209,-0.258859,0.0330232,0.0458064,16.65,-5.55,60.3,0.608335,0.893342,10.6918
24141378,-0.151268,0.0575243,0.0703075,17.1,-4.8,60.3,0.239502,-0.258662,6.64664
24154376,0.255663,0.015979,0.0298274,17.4,-4.8,59.25,0.878972,0.337698,9.01052
24177216,-0.385626,-0.092678,0.0298274,17.85,-5.25,59.1,0.60594,1.12087,10.7445
24190378,-0.104396,-0.00852211,0.0703075,19.05,-4.2,60.45,-0.270637,0.387993,10.0428
24213203,0.167247,0.150202,0.134223,16.8,-6,60.45,-0.122146,0.984353,10.6152
24225376,-0.0873517,-0.0500674,0.0681769,15.9,-6.15,59.7,0.313748,1.02267,10.2943
24248209,-0.297209,-0.00639159,0.0511327,17.7,-4.8,59.7,-0.512534,0.809517,9.78172
24261379,-0.297209,0.111853,0.0500674,17.1,-5.85,59.7,-0.320933,0.263452,8.76862
24284203,0.187487,0.0181095,0.0830906,17.4,-4.8,58.65,0.148491,0.752036,9.44402
24297381,0.248207,-0.0852212,0.0852212,16.35,-5.1,59.7,-0.792751,1.36277,14.1694
24320203,-0.0862864,0.0884169,0.125701,16.2,-4.2,59.85,-0.316143,0.792751,10.3637
24332377,0.305731,0.0820254,0.0980043,16.5,-6,59.85,1.45378,0.337698,7.58548
24355216,0.189617,-0.0862864,0.0788296,17.85,-7.95,59.4,0.874182,1.06099,11.1349
24368377,-0.0149137,0.128897,0.106526,15.75,-6.75,58.05,-0.802332,1.26697,12.3348
24381374,0.410127,0.102265,0.167247,17.25,-5.7,58.35,0.0622705,1.24062,9.86315
24404203,-0.150202,-0.0660464,0.00852211,17.25,-7.5,59.1,0.251477,1.22146,8.66564
24416382,-0.396278,-0.0777643,-0.0372843,16.5,-6.75,58.35,-0.282612,0.778381,9.48234
24439203,0.479369,-0.0553937,0.0639159,16.8,-6.45,57.3,-0.881367,1.33882,12.4522
24452376,-0.0809601,0.151268,0.0788296,16.5,-6,59.4,0.376018,1.56874,8.72791
24475216,0.405866,-0.136354,0.0117179,17.7,-5.55,57.6,1.67412,1.05141,9.00813
24488378,-0.400539,-0.108657,-0.0330232,17.7,-7.65,56.85,-0.476609,1.77471,10.8619
24511203,-0.28123,0.204531,0.0117179,16.2,-6.75,57.75,-0.335303,0.749641,8.42374
24523376,0.615723,0.0170442,0.0703075,16.8,-5.7,58.8,0.0598755,1.85375,11.178
24546209,-0.414388,-0.0873517,-0.0287621,16.2,-5.25,57.3,-0.0455054,2.28724,12.0905
24559379,-0.72438,0.140615,0.0170442,16.8,-6,57.75,-0.847837,0.950823,8.42374
24582203,0.590156,0.0873517,0.0884169,16.65,-7.35,57.15,0.213157,1.06339,8.68959
24594381,0.168312,-0.14168,0.0191748,17.25,-8.25,57.3,0.821492,2.34233,12.5719
24617203,-0.481499,0.136354,0.0713727,15.9,-6.9,56.55,0.126936,1.66693,10.4643
24630377,0.15979,0.0596548,0.111853,18.45,-6.15,55.5,0.493374,0.495769,7.5304
24643376,0.681769,-0.0511327,0.118244,16.8,-7.2,54.9,0.225132,2.20821,11.7025
24666209,-0.268447,0.0862864,0.0841559,16.5,-7.5,56.7,0.0502954,1.69088,10.9864
24679378,-0.0958738,-0.0351537,0.0585895,16.65,-7.35,55.8,0.364043,0.486189,7.2909
24702203,0.188552,-0.0213053,0.0383495,15.45,-6,55.35,-0.0359253,1.26936,9.83441
24715382,-0.176834,-0.0127832,0.0287621,17.1,-7.35,56.1,0.0718506,1.88728,11.5205
24738203,-0.224771,0.0276969,0.0426106,17.4,-6.15,54.75,0.263452,1.23104,9.65478
24750376,0.0276969,0.0383495,0.0553937,16.2,-7.5,56.7,0.431104,0.972378,8.67043
24773241,0.329167,-0.0149137,0.1012,16.65,-8.1,55.8,0.744851,0.905317,11.099
24786378,-0.00426106,0.126766,0.0830906,16.5,-7.5,54.6,0.249082,2.58662,11.5516
24809203,-0.0234358,0.140615,0.0788296,15.9,-7.65,54.75,0.0718506,1.77231,9.85357
24821376,0.173638,0.0394148,0.0980043,17.1,-8.1,54.75,-0.390388,1.8298,10.5745
24845210,-0.157659,0.00852211,0.0372843,16.5,-7.95,54.3,-0.536484,1.83698,9.53024
24858379,0.00639159,0.0117179,0.02024,16.5,-7.95,54.3,-0.790356,1.28613,9.18536
24871376,0.0170442,-0.0266316,-0.02024,16.8,-7.95,54.6,-0.0981958,1.72681,9.90147
24894216,-0.0117179,-0.0255663,-0.00745685,16.5,-8.7,55.95,0.256267,1.75315,9.91344
24907377,0.0213053,-0.0191748,0.00426106,16.8,-7.5,53.55,0.399968,1.70286,9.96853
24930203,0.0394148,0.0330232,0.00852211,17.1,-6.9,54,0.234712,1.64059,9.97092
24943376,0.00639159,0.00745685,0.0127832,15.9,-7.65,54.75,0.380808,1.80824,10.0739
24966209,-0.0969391,-0.0191748,-0.00106526,16.8,-8.7,54.9,0.102986,1.57592,9.68352
24979379,0.0415453,0.0287621,0.00852211,17.25,-7.95,54.3,-0.141306,1.52563,9.76256
24992376,0.0298274,0.0213053,-0.00532632,17.55,-6.45,54.6,0.0670606,1.78908,10.1721
25015216,-0.106526,0.00106526,-0.0181095,16.35,-8.1,54.75,-0.0814307,1.51365,9.84159
25028377,0.0532632,0.00532632,-0.0138484,16.8,-7.2,53.85,-0.306563,1.51844,9.86075
25051203,0.00532632,0.0117179,-0.0276969,16.65,-9.15,53.7,-0.129331,1.69328,10.2296
25064376,-0.0692422,0.00852211,-0.0340885,17.25,-7.5,53.25,0.00479004,1.40588,9.59011
25087209,0.0276969,-0.00319579,-0.0458064,17.25,-7.5,55.65,0.0287402,1.47294,9.6931
25099379,-0.00426106,0.00213053,-0.0458064,16.8,-7.5,53.25,-0.0502954,1.51126,10.22
25122203,-0.0500674,0.00319579,-0.0468716,16.35,-7.35,55.05,0.136516,1.30289,9.82722
25134381,0.0191748,0.00639159,-0.0415453,15.45,-7.95,54.6,0.215552,1.31487,9.87273
25157203,-0.00213053,0.00639159,-0.0266316,17.1,-8.85,53.4,0.158071,1.36516,10.026
25169377,-0.0213053,0.0138484,-0.0181095,16.5,-8.25,53.55,0.208367,1.29331,9.82722
25192247,0,0.00958738,-0.00319579,16.35,-8.4,54,0.296982,1.28852,9.89907
25205377,-0.00745685,0.00958738,0.0117179,15.6,-8.85,53.4,0.258662,1.36277,10.0116
25228203,-0.00958738,0.0106526,0.02024,16.5,-7.95,54.9,0.177231,1.20948,9.95655
25241377,-0.0820254,0.00958738,0.00639159,17.55,-8.25,53.25,-0.0574805,0.888552,10.0308
25254376,-0.0532632,0.015979,0.00852211,15.3,-8.1,54,-0.0143701,0.711321,9.82722
25277203,0.0149137,0.015979,0.015979,16.65,-8.1,54,0.0718506,0.819097,9.98529
25290376,-0.00319579,0.00639159,0.0276969,15.75,-7.95,54.3,0.165256,0.871787,10.0476
25313214,-0.00745685,0.00745685,0.0298274,15,-9,53.55,0.0838257,0.773591,9.91344
25326379,0.0191748,0.0170442,0.0394148,15.75,-7.95,54.3,0.153281,0.838257,9.88949
25349203,-0.0106526,0.0191748,0.0447411,15.3,-8.4,53.7,0.280217,0.958008,9.99248
25362376,-0.0223706,0.0117179,0.052198,15.75,-7.95,53.85,0.146096,0.864602,9.96853
25385222,-0.00213053,0.0181095,0.0639159,15.3,-8.4,54,0.0550855,0.950823,10.0667
25398379,-0.0266316,0.0245011,0.0692422,16.5,-7.5,54.3,0.0838257,0.799937,10.0116
25411376,-0.00319579,0.015979,0.072438,15.75,-8.25,53.85,0.0766406,0.761616,9.82722
25434216,0.0149137,0.0191748,0.0692422,16.8,-7.95,54.6,-0.0574805,0.905317,10.026
25447377,-0.0138484,0.0223706,0.0596548,15.75,-8.25,53.55,-0.112566,0.876577,9.98529
25470203,0.00319579,0.0117179,0.0500674,16.2,-8.25,53.85,-0.0287402,0.878972,9.89907
25483376,-0.00213053,0.0181095,0.0351537,16.65,-6.9,53.7,-0.124541,0.967588,10.105
25506209,-0.0255663,0.0170442,0.0287621,16.65,-7.65,53.4,-0.201182,0.900527,10.0332
25518379,-0.00426106,0.00639159,0.0191748,16.8,-8.7,53.55,-0.153281,0.900527,9.98769
25541203,-0.00319579,0.00958738,0.00106526,16.8,-7.5,52.5,-0.126936,0.883762,10.0068
25553399,-0.0213053,0.00213053,-0.00852211,16.8,-9,53.55,0.00718506,0.878972,9.91344
25576203,-0.00852211,0.00745685,-0.0106526,15.6,-8.1,52.95,0.0479004,0.807122,9.91105
25588377,-0.0138484,0.00106526,-0.0127832,17.4,-8.1,54.75,0.0407153,0.823887,9.97332
25611246,-0.0106526,0.00426106,-0.0149137,15.6,-8.1,53.7,0.0215552,0.843047,9.95895
25624384,0.0106526,0.00958738,-0.00639159,17.25,-6.75,53.25,0.153281,0.852627,9.98529
25647203,0.00745685,0.00319579,-0.00745685,15.3,-8.85,53.7,0.0670606,0.859812,10.0188
25659377,-0.00745685,0.0127832,-0.00426106,17.1,-7.35,54,0.100591,0.936453,9.91344
25672722,-0.0138484,0.0106526,-0.00639159,18.15,-8.85,54,0.0742456,0.902922,9.92781
25695203,-0.0234358,0,-0.00426106,15.75,-7.95,54.3,0.0502954,0.802332,10.0045
25708367,-0.00319579,0.00213053,0.00213053,17.4,-7.35,52.95,0.0526904,0.828677,9.99248
25731245,0.0106526,0.0138484,0.0117179,16.5,-7.5,53.25,0.0862207,0.876577,10.014
25744385,-0.0138484,0.0149137,0.0106526,15.9,-8.85,55.8,0.158071,0.883762,9.94937
25767203,-0.0117179,0.00639159,0.0138484,16.5,-8.25,53.55,0.0311353,0.819097,9.84878
25780376,-0.00319579,0.00532632,0.00426106,16.8,-8.7,54.6,-0.0479004,0.883762,9.99248
25803222,-0.0127832,0.00958738,0.00426106,15.9,-8.1,55.05,0.0383203,0.864602,10.0763
25816379,-0.00852211,0.00958738,0.00532632,15.75,-7.2,54.9,0.0694556,0.816702,9.99487
25839203,-0.00958738,0.00958738,0.00213053,15.75,-6.75,53.85,0.110171,0.881367,10.0212
25852414,-0.0181095,0.015979,0.0117179,16.8,-7.95,52.8,0.0311353,0.807122,9.9805
25865377,0.00852211,0.0138484,0.00532632,15.6,-6.9,53.4,0.0646655,0.845442,9.9326
25888203,-0.00532632,0.00639159,0.00745685,16.2,-7.5,53.85,0.0191602,0.847837,9.97092
25900376,-0.0149137,0.00319579,0.00639159,17.1,-6.6,53.7,0.100591,0.797542,9.92542
25923222,0.00639159,0.00958738,0.00213053,15,-7.5,53.85,-0.0215552,0.814307,10.0045
25936377,0.00426106,0.0213053,0.00532632,18.3,-8.7,53.25,0.0335303,0.828677,10.0835
25959203,-0.00106526,0.00639159,0.0127832,16.35,-8.85,53.4,0.105381,0.780776,9.84399
25971414,-0.00106526,0.00426106,0.00958738,15.6,-8.1,55.05,0.105381,0.838257,9.95416
25994203,-0.0127832,0.00639159,0.00745685,15.45,-7.95,53.25,0.0287402,0.847837,10.0092
26007373,-0.00319579,0.0106526,0.00213053,16.8,-8.25,53.25,0.0670606,0.888552,9.97092
26030230,-0.00426106,0.00745685,0.00213053,16.8,-8.7,53.85,0.0335303,0.859812,10.0284
26043379,-0.0117179,0.00852211,0.00745685,16.2,-7.95,53.55,0.122146,0.871787,9.96853
26056371,-0.00958738,0.00745685,0.00958738,17.25,-9.3,52.5,0.0598755,0.852627,10.0428
26079203,-0.0149137,0.0117179,0.00532632,15.75,-8.25,53.85,-0.0215552,0.780776,9.97571
26091413,-0.00106526,0.00958738,0.00319579,17.1,-6.6,53.7,0.0143701,0.857417,9.99487
26114203,0.00639159,0.00745685,0.00319579,15.75,-9.75,54.6,0.0239502,0.864602,10.0212
26127372,-0.0106526,0.0149137,0.00319579,16.5,-7.95,53.55,0.0550855,0.862207,9.9829
26150215,0.00213053,0.00852211,0.00213053,16.8,-7.2,54.6,0.102986,0.816702,9.93979
26163378,0.00213053,0.00958738,0.00213053,16.2,-8.25,52.5,0.129331,0.866997,9.95895
26186203,-0.00745685,0.0117179,0.00106526,15.3,-8.85,54,0.0359253,0.850232,10.0308
26198377,-0.00532632,0.00319579,0.00426106,17.1,-8.4,54,0.0790356,0.855022,9.93979
26221216,-0.00532632,0.00639159,0.00319579,16.8,-8.7,54.3,0.146096,0.857417,9.97332
26234377,0.00213053,0.00426106,0.00745685,17.25,-9,54.6,0.112566,0.766406,9.94697
26257203,0.00852211,0.0149137,0.0117179,15.45,-7.95,53.85,0.0670606,0.775986,9.9829
26270392,-0.00426106,0.0138484,0.00106526,16.2,-9,53.55,0.0958008,0.823887,10.0092
26283378,-0.0106526,0.0127832,0.00213053,15,-8.25,54.3,0.00718506,0.706531,9.99487
26306203,0.0213053,0.02024,0.00213053,14.7,-8.25,53.25,-0.0287402,0.816702,10.0883
26318376,-0.00958738,0.0127832,0.00106526,16.2,-8.25,53.25,0.0550855,0.771196,10.0068
26341216,-0.00213053,0.00852211,0.00426106,17.25,-7.5,52.5,0.0934058,0.778381,9.87512
26354378,-0.0692422,-0.00426106,-0.0117179,15.9,-8.4,54.45,0.138911,0.771196,9.80088
26377203,-0.0862864,-0.00319579,-0.0266316,17.4,-9.9,53.7,-0.380808,1.33882,9.36738
26389378,-0.0671117,-0.0106526,-0.015979,15.9,-7.35,52.65,-0.138911,0.488584,9.68352
26412210,-0.00745685,-0.00958738,-0.0138484,16.65,-9.15,52.65,-0.0239502,0.701741,10.3805
26425376,0.0106526,-0.00106526,0.00532632,16.35,-8.85,53.7,-0.0287402,0.65863,10.2344
26448203,0.0596548,0.015979,0.0149137,16.5,-7.5,54.3,-0.0383203,0.452659,10.1194
26460378,-0.00532632,0.0255663,0.00745685,15.45,-8.25,54.6,0.182021,0.502954,9.83201
26483203,-0.02024,-0.0117179,-0.00639159,17.25,-7.95,53.55,0.191602,0.459844,9.90147
26496373,-0.0223706,0,-0.00745685,15.9,-8.4,54,-0.0886157,0.495769,10.2032
26519216,-0.00532632,0.0276969,-0.00852211,16.65,-7.35,53.7,0.0646655,0.529299,10.1793
26532378,0.00106526,0.00639159,-0.00426106,15.75,-8.25,51.75,0.201182,0.376018,9.97811
26545376,-0.00639159,0.00532632,-0.00213053,17.4,-7.35,53.4,0.261057,0.270637,9.96134
26568203,0.0106526,0.0255663,0.0149137,15.3,-6.9,53.4,0.203577,0.361648,10.0045
26581381,-0.00639159,0.0245011,0.0266316,16.5,-8.25,53.85,0.0622705,0.292192,10.1553
26604203,-0.04048,-0.00852211,0.02024,15.75,-6.45,53.55,-0.0526904,0.387993,9.90147
26617376,-0.0287621,0.0106526,0.015979,16.5,-8.25,53.55,-0.0167651,0.122146,10.0284
26640216,-0.00958738,0.00745685,0.0234358,16.2,-7.2,53.55,0.0670606,0.119751,10.0883
26653378,0.0191748,0.0127832,0.0308927,15.45,-7.2,53.85,0.189207,0.203577,9.97571
26676203,-0.00426106,0.0138484,0.0191748,16.2,-8.25,53.55,0,0.138911,10.0643
26688376,-0.0191748,0.0223706,0.00213053,15.9,-6.9,53.7,-0.165256,0.253872,9.9829
26711210,0.0532632,0.0106526,-0.00745685,17.4,-7.65,52.95,-0.213157,0.387993,10.1242
26724378,-0.00319579,0.00958738,-0.0106526,16.65,-7.65,54.45,0.0431104,0.474214,10.1386
26737376,0,-0.00958738,-0.02024,15.75,-8.25,53.55,0.0862207,0.313748,9.91105
26760216,0.00745685,0.00958738,-0.0181095,15.6,-8.4,54.45,0.0431104,0.342488,10.0835
26773378,-0.0127832,0.02024,-0.00532632,15.6,-8.1,52.95,0.0550855,0.249082,10.0787
26796203,-0.0671117,-0.0170442,-0.00319579,15.45,-9.3,52.2,0.340093,0.198787,10.0068
26808376,0.0170442,0.00852211,0.00639159,15.75,-7.5,53.25,0.124541,0.0766406,9.75777
26831210,0.0681769,0.0298274,0.0127832,16.5,-8.25,52.5,-0.0694556,0.371228,10.2679
26844378,0.0170442,0.00426106,0.02024,15.9,-8.1,52.95,0.165256,0.443079,10.0332
26867203,-0.0671117,0.00958738,0.00213053,17.1,-7.65,52.65,-0.0119751,0.340093,10.5457
26879381,-0.0937433,0.0138484,0.00106526,15.3,-8.1,52.35,-0.110171,0.256267,9.81525
26902203,0.107592,0.0117179,0.0181095,15.9,-8.1,52.65,-0.131726,0.371228,10.1338
26915376,0.00319579,-0.00213053,0.00639159,15.3,-7.35,52.65,0.0359253,0.764011,10.8499
26938216,-0.15979,0.0181095,0.0149137,16.2,-9,51.45,0.464634,0.0335303,9.27158
26951378,0.0798948,0.00426106,0.0213053,15.9,-8.4,51.3,0.747246,-0.0550855,8.90993
26964376,0.128897,0.0436758,0.0170442,15.75,-7.5,52.8,-0.318538,0.589175,10.426
26987203,-0.186421,0.0351537,-0.0276969,15.9,-8.1,50.85,-0.239502,0.519719,10.493
27000381,-0.223706,-0.00213053,-0.0426106,15.6,-8.1,51.9,-0.182021,0.114961,8.79018
27023203,0.0330232,-0.0181095,-0.0490022,16.2,-7.5,51.75,0.0886157,0.423918,10.0979
27035376,-0.136354,0.0266316,-0.0245011,15.9,-8.4,50.85,0.570015,0.354463,10.0068
27058216,0.0585895,0.0255663,0.0138484,15.9,-8.1,50.55,0.275427,0.0383203,9.1159
27071378,0.227967,0.0138484,0.0149137,14.85,-9.15,51.3,-0.325723,0.838257,10.7804
27094203,-0.171508,-0.00852211,-0.0170442,15,-8.7,50.4,-0.234712,0.546064,10.6391
27106376,-0.109722,0.0511327,0.00213053,15.45,-8.7,50.1,0.519719,0.0383203,9.0201
27129203,0.105461,0.0138484,0.00532632,17.25,-9,51.45,0.529299,0.306563,9.91105
27141377,-0.144876,-0.00213053,-0.0117179,16.35,-8.4,50.25,-0.0502954,0.759221,10.6128
27164203,0.236489,0.0213053,0.0138484,15.45,-8.25,50.4,-0.692161,0.392783,10.4811
27177381,-0.00532632,-0.0106526,-0.0255663,15.45,-8.7,50.7,0.301772,0.787961,9.75537
27200203,0.127832,-0.052198,-0.0436758,15.6,-8.1,49.8,0.64426,0.349673,9.07998
27213377,0.0415453,0.00745685,-0.0330232,14.7,-7.95,49.05,0.0479004,1.20948,11.3409
27226376,-0.184291,0.0628506,-0.0117179,14.4,-8.7,49.65,0.349673,0.61552,9.73861
27249209,0.109722,-0.0713727,-0.0127832,14.7,-7.5,49.65,0.548459,0.335303,9.19015
27261378,0.148072,0.0340885,0.0181095,15.6,-7.65,49.5,-0.0191602,0.66342,10.4571
27284203,0.167247,0.131028,0.0575243,16.2,-7.95,48.6,-0.189207,1.02986,10.3685
27297382,0.0447411,0.0649811,0.0138484,16.2,-8.7,47.25,-0.213157,1.25499,10.5769
27320203,-0.504935,-0.0617853,-0.104396,15.6,-8.1,49.2,-0.560435,1.04902,9.91584
27332376,-0.70627,0.0937433,-0.072438,16.8,-7.95,48,-1.00351,-0.112566,7.31724
27355216,0.566721,-0.109722,-0.0276969,15.3,-8.4,47.1,0.57241,0.323328,9.91344
27368378,-0.0639159,-0.123571,-0.0426106,15.45,-7.2,48.3,0.244292,2.3543,14.6221
27391203,-0.545415,0.2024,0.0447411,15.3,-8.1,47.4,0.234712,-0.155676,8.32315
27403376,0.475108,0.0660464,0.02024,14.55,-8.4,47.7,1.69328,-0.296982,6.07902
27426209,0.546481,-0.132093,0.0245011,13.35,-6.75,48,0.270637,1.6334,12.639
27439379,-0.328101,0.0852212,0.0351537,14.4,-7.95,48.3,-0.474214,1.04662,12.5719
27452376,0.42291,0.0276969,0.0798948,15.75,-7.5,47.55,0.0263452,0.0934058,8.2034
27475216,0.487891,0.00426106,0.0490022,13.65,-8.7,46.5,0.0455054,1.19032,10.1697
27488377,-0.249272,-0.036219,-0.0490022,15.45,-7.2,46.2,-0.692161,1.08015,11.5061
27511203,0.481499,-0.0298274,0.0330232,15.6,-8.85,47.1,-0.565225,0.718506,13.3
27523376,0.436758,0.0639159,0.0894822,13.95,-7.95,46.95,-0.177231,1.65735,12.5288
27546209,-0.0745685,0.0330232,0.036219,15.6,-5.85,46.35,1.03944,0.754431,7.50884
27559379,-0.133158,-0.0287621,-0.0852212,15,-7.95,47.55,0.58678,0.390388,8.07167
27582203,-0.245011,-0.1012,-0.092678,14.55,-7.35,46.05,-0.342488,1.06578,11.9324
27594381,0.124636,0.0458064,0.0319579,15.3,-8.1,45.6,-0.902922,0.632285,12.1552
27617203,0.142745,-0.00319579,0.0266316,14.25,-7.35,45.3,0.306563,0.486189,9.8871
27630377,0.0351537,-0.052198,-0.0138484,14.4,-8.25,46.2,0.447869,0.538879,7.82978
27653245,0.0958738,-0.052198,-0.0490022,14.55,-7.65,44.7,0.0718506,1.04423,9.52066
27666377,-0.0383495,-0.0127832,-0.0127832,14.25,-7.35,44.25,0.962798,1.15919,10.9529
27679374,-0.0617853,-0.0894822,0.0351537,14.7,-8.25,45.15,0.55804,1.19511,10.2823
27702203,0.188552,0.0958738,0.108657,13.35,-6,43.8,-0.285007,0.270637,8.33512
27714407,0.791491,0.0617853,0.116114,14.25,-8.1,43.2,0.426313,1.6358,11.8486
27737203,-0.499609,-0.0628506,0.00745685,13.05,-6.9,45.3,-0.0670606,1.42983,10.9457
27749376,-0.267381,0.0841559,0.0372843,14.25,-6.9,44.7,-0.883762,-0.249082,7.20228
27772250,1.05781,0.0596548,0.0820254,12.9,-8.25,43.8,1.17116,1.41067,12.6821
27785379,-0.679639,-0.103331,0.0884169,14.85,-8.1,44.7,0.713716,1.44659,11.8031
27808203,-0.302535,-0.0500674,0.150202,14.55,-7.65,43.2,0.0479004,0.0479004,7.06097
27820376,1.05355,0.0980043,0.16192,12.75,-8.4,44.25,-0.443079,1.13524,11.3193
27843203,-0.410127,-0.128897,0.0223706,13.8,-6.9,42.9,1.00591,1.95194,11.1565
27855377,-0.416518,-0.0990696,0.0649811,13.05,-6.6,42.9,-0.63468,0.795147,9.77453
27878203,0.0138484,0.132093,0.120375,14.55,-6.9,42.6,-0.304167,1.06339,11.0463
27890414,-0.170442,0.0458064,0.111853,14.25,-7.65,41.85,0.287402,0.62031,11.2882
27913203,0.0245011,-0.0862864,0.135289,13.95,-7.5,40.95,-0.797542,0.725691,10.0907
27925377,0.128897,0.216249,0.123571,14.4,-5.25,42.75,-1.11368,1.346,9.66915
27948203,-0.409062,-0.0383495,-0.0191748,14.4,-6.45,41.7,0.60594,0.673001,8.30878
27960381,-0.62318,-0.111853,-0.0713727,13.8,-6.6,42.9,0.102986,0.340093,8.18663
27983203,-0.0308927,0.0862864,0.0138484,14.25,-6.15,42.15,-0.253872,0.589175,9.38893
27995377,0.558199,0.0415453,0.113983,14.4,-6.45,41.25,-0.0838257,2.34472,13.6904
28018216,-0.413323,0.0415453,0.0735032,14.4,-6.75,42.75,0.706531,1.57353,11.269
28031377,-0.502805,0.0308927,0.0532632,14.55,-5.85,40.05,0.0718506,0.00479004,6.15087
28054203,0.656203,0.198139,0.0735032,13.65,-5.25,40.65,-0.220342,0.479004,8.36147
28066377,-0.173638,-0.0809601,0.0170442,14.25,-5.55,40.8,0.962798,2.19623,11.8989
28089209,-0.431432,-0.0266316,0.0841559,14.55,-5.55,40.8,-1.46575,0.373623,11.4558
28101378,1.11214,0.13955,0.16192,14.4,-6,39.9,-0.479004,1.4418,11.0391
28124203,-0.226901,0.0213053,0.0287621,13.95,-6.45,39.15,0.708926,1.82021,8.89316
28137382,-0.556068,-0.0490022,-0.112918,14.25,-6.15,40.05,-0.656235,0.335303,7.66691
28150378,0.291882,0.0415453,-0.056459,14.25,-5.1,40.8,-0.893342,1.15919,11.4822
28173203,-0.0607201,0.0266316,-0.00106526,13.95,-5.25,38.85,0.443079,1.7795,11.6307
28185376,0.0447411,-0.0830906,-0.00532632,14.25,-5.55,38.4,-0.150886,0.61552,8.83089
28208209,0.302535,0.0894822,-0.02024,13.05,-4.35,39.75,-0.651445,1.57353,9.68113
28221379,0.00532632,0.00213053,-0.0511327,12.9,-7.2,38.85,0.857417,1.71004,10.7134
28244203,-0.399474,-0.12144,-0.0820254,12.75,-5.55,39.45,0.833467,1.11368,7.6238
28256381,0.235423,0.056459,-0.04048,13.8,-5.55,39.45,0.407153,0.752036,8.1531
28279203,0.224771,-0.056459,-0.0181095,14.4,-5.7,38.55,0.0167651,2.692,12.7012
28292377,-0.349407,0.056459,0.0106526,12.15,-5.25,38.55,0.371228,1.61903,11.0487
28315216,0.129962,0.0106526,0.0255663,12.75,-4.8,39.45,0.124541,1.33403,8.42853
28328377,0.349407,0.0596548,0.0287621,14.55,-4.35,37.95,-0.570015,1.80105,11.0319
28351203,-0.434628,0.0756338,-0.0287621,15,-4.5,38.55,0.522114,1.83459,9.0177
28363377,0.0117179,-0.110787,-0.0415453,12.75,-3.3,37.95,-0.222737,0.950823,8.94586
28386209,0.0245011,0.02024,-0.0245011,12.6,-5.25,39.6,-0.332908,1.54,10.1314
28399378,0.0884169,0.0511327,-0.0117179,13.05,-4.05,37.95,-0.170046,1.47054,10.6008
28412376,-0.213053,-0.0692422,-0.0532632,13.05,-5.1,37.65,0.764011,1.43941,9.46318
28435216,-0.02024,0.00745685,-0.0287621,12.9,-3.75,38.85,0.347278,1.21906,8.94106
28448378,0.203465,0.0181095,-0.00639159,13.35,-3.45,38.55,0.182021,1.98547,10.7086
28471203,-0.02024,0.0543285,0.00106526,12,-3.3,38.7,0.60594,2.41178,10.6008
28483376,-0.148072,-0.0351537,0.00426106,13.05,-5.55,38.7,1.42743,0.989143,7.05139
28506209,0.576308,0.00958738,0.0628506,13.05,-3.6,36.9,1.51605,1.3963,8.53152
28518379,-0.248207,0.092678,0.0671117,13.05,-4.8,37.95,0.65384,1.75315,11.3912
28541203,-0.418649,0.036219,0.04048,13.05,-4.35,36.6,-0.203577,0.419128,9.55898
28554381,0.496413,-0.0127832,0.0841559,12.15,-4.95,38.1,-0.00718506,1.21906,10.1146
28577203,0.0905475,0.0490022,0.076699,13.65,-3.75,37.5,0.270637,2.53393,11.0343
28590377,-0.36219,0.0607201,0.0532632,13.35,-4.5,36.75,0.0646655,1.46096,8.85724
28613219,0.152333,-0.0127832,0.0596548,13.8,-4.05,36.9,0.0981958,1.65017,9.41288
28626377,0.11931,-0.00213053,0.0735032,13.8,-4.05,37.35,-0.301772,2.33514,11.6882
28639374,-0.16192,0.0884169,0.0692422,11.85,-4.5,37.05,-0.0814307,1.85135,9.62364
28662203,0.0117179,0.0340885,0.0319579,13.65,-3.75,36.75,0.311353,1.37235,8.50757
28675382,0.0340885,-0.0223706,0.00639159,12.15,-2.7,36,0.0143701,1.88967,10.3326
28698203,-0.12144,0.0692422,0.015979,13.05,-3.3,36.6,-0.253872,1.72202,10.4691
28710376,0.0394148,0.0340885,0.0298274,13.05,-2.85,37.35,0.0239502,1.40827,9.53982
28733246,0.107592,0.00745685,0.0245011,13.5,-5.55,36.6,-0.160466,1.53521,10.1793
28746384,-0.0873517,0.0468716,0.02024,14.55,-4.05,36.9,-0.232317,1.37714,9.93979
28769203,-0.0351537,0.0117179,0.0117179,13.35,-3.45,37.05,-0.129331,1.14482,9.4991
28782376,0.0372843,-0.00639159,0.0149137,12.75,-3.3,36.9,-0.251477,1.25739,10.3278
28805209,-0.0990696,0.00958738,0.0127832,13.95,-4.2,36.75,0.153281,1.00591,10.1721
28818379,-0.00852211,0.0181095,0.0213053,12.6,-3.75,36.75,0.421523,0.823887,9.72663
28831376,-0.00745685,0.0351537,0.0330232,14.55,-4.05,36.9,0.100591,1.36756,10.4667
28854216,-0.171508,0.0607201,0.0287621,13.8,-2.85,37.35,0.112566,0.946033,10.2679
28867377,-0.137419,0.124636,0.0735032,13.35,-3.75,38.1,-0.114961,0.174836,9.76974
28890203,0.154463,-0.00639159,0.0798948,12.6,-3.45,37.05,-0.457449,0.603545,10.4859
28902376,0.289752,0.015979,0.0852212,13.5,-4.05,37.65,-1.21428,0.775986,11.5852
28925209,0.0479369,0.0447411,0.0330232,13.65,-4.95,36.45,-0.100591,0.677791,10.3302
28938379,-0.108657,-0.00426106,0.00639159,13.35,-3,37.5,1.07297,0.579595,8.40698
28961203,-0.0351537,-0.0468716,-0.0127832,11.55,-4.2,36.45,0.56762,0.936453,9.60209
28973397,-0.076699,0.0330232,0.0117179,12,-5.1,37.35,-0.399968,1.0083,11.1325
28996203,-0.0149137,0.0596548,0.0287621,12.75,-4.8,37.65,-0.462239,0.737666,10.0212
29008377,0.134223,-0.0149137,0.0191748,13.65,-3,37.8,-0.0407153,0.862207,9.87752
29031241,-0.0234358,-0.0234358,-0.00639159,12.15,-3.75,36,-0.0311353,0.962798,10.1314
29044384,-0.0671117,0.0319579,-0.00958738,13.65,-4.95,37.05,0.0143701,0.759221,9.55419
29067203,0.0436758,0.00106526,-0.00532632,13.35,-3,38.55,0.225132,0.831072,9.97811
29079377,-0.0234358,-0.00639159,-0.00745685,12.75,-4.35,37.35,-0.0790356,0.890947,10.3613
29102222,-0.0234358,0.0319579,0.00106526,11.55,-4.5,36.75,-0.198787,0.768801,9.79848
29115378,0.0532632,0.0138484,-0.00213053,12.9,-3.75,36,0.136516,0.804727,9.87273
29128373,-0.0181095,-0.0138484,-0.00426106,13.65,-3.75,36.75,0.0981958,0.910107,10.1529
29151245,-0.0308927,0.0117179,-0.00213053,12.9,-4.2,36,0.0431104,0.773591,9.89907
29164379,0.02024,0.0191748,0.00852211,13.8,-3.3,37.95,0.0934058,0.898132,9.9326
29187203,-0.0170442,0.00639159,0.0106526,13.8,-4.05,36.3,0.117356,0.864602,10.0356
29200376,-0.00426106,0.0106526,0.00745685,12.6,-4.95,36.75,-0.0359253,0.768801,9.89668
29223222,0.0127832,0.0245011,0.00958738,12,-5.55,37.65,-0.143701,0.823887,10.0811
29236379,-0.00532632,0.00639159,-0.00106526,14.25,-4.05,36.9,-0.0167651,0.797542,10.0212
29259203,-0.00745685,-0.00639159,-0.0149137,13.95,-3,37.8,-0.0407153,0.819097,9.87273
29272414,0.00426106,0.00319579,-0.02024,14.25,-5.1,37.65,-0.100591,0.699346,9.98529
29285377,-0.0149137,0,-0.0245011,14.7,-4.2,36,0.0934058,0.728086,9.88949
29308203,-0.00213053,-0.00106526,-0.0319579,13.35,-4.5,37.5,0.0191602,0.668211,9.87752
29320376,-0.0745685,-0.00532632,-0.0298274,12.15,-4.2,37.5,0.229922,0.376018,9.24523
29343222,0.0245011,-0.0138484,-0.0255663,13.65,-3,37.8,0.455054,0.416733,9.02729
29356377,-0.00852211,-0.00958738,-0.0117179,13.8,-3.6,36.6,0.232317,0.735271,9.92063
29379203,-0.0852212,-0.0287621,-0.00958738,13.05,-3.6,37.65,0.182021,0.699346,10.4882
29391415,-0.0181095,-0.0234358,0.0181095,13.5,-2.85,37.35,0.203577,0.675396,10.3877
29414203,0.108657,-0.00426106,0.0458064,13.95,-4.5,36.45,-0.198787,0.62031,10.3805
29426373,0.0490022,0.015979,0.0308927,12.6,-4.5,37.05,-0.0479004,0.744851,10.0691
29449204,-0.0117179,0.00319579,0.00958738,12.9,-4.95,37.05,0.220342,0.589175,9.71945
29461381,0,-0.00532632,0.00958738,12.9,-3.75,37.5,0.292192,0.593965,9.86075
29484203,-0.0308927,0.00532632,0.0117179,13.5,-4.05,36.9,0.0934058,0.694556,10.1194
29496374,-0.0181095,0.00745685,0.0191748,13.5,-2.55,36.6,0.0215552,0.529299,9.935
29519217,-0.0181095,0,0.0234358,13.35,-3.45,36.45,0.148491,0.534089,9.95176
29532377,-0.00426106,0.00106526,0.036219,12.6,-4.2,37.5,0.153281,0.431104,9.90147
29555203,0.00745685,-0.00213053,0.0426106,13.35,-3,38.55,0.220342,0.364043,9.97811
29567374,-0.0106526,0.00319579,0.0415453,13.35,-3.75,36.75,0.0790356,0.352068,9.95176
29590210,-0.0149137,0,0.0383495,13.35,-2.7,36.75,0.0934058,0.342488,9.8368
29602377,0.0394148,0.0106526,0.0319579,12.45,-4.05,37.35,0.114961,0.258662,10.0931
29625203,-0.0458064,-0.00639159,0.0181095,12.9,-4.5,36.45,0.0574805,0.395178,10.0547
29637374,-0.00745685,0.00852211,0.00958738,12.75,-3.6,36.9,0.0646655,0.311353,10.0092
29660203,-0.00106526,0.0319579,0.00106526,12,-3.6,37.35,-0.0455054,0.296982,10.1505
29672376,-0.056459,-0.0117179,-0.0127832,12.6,-4.2,37.8,0.0550855,0.301772,9.99966
29695219,-0.00639159,-0.015979,-0.0245011,13.35,-3.45,36.45,-0.0526904,0.280217,9.73142
29707377,0.0394148,0.0351537,-0.0234358,13.05,-4.05,35.55,-0.102986,0.222737,9.97092
29730203,-0.0255663,-0.00426106,-0.0266316,13.05,-4.8,36.9,0.524509,0.246687,9.87033
29742377,0.0436758,-0.0181095,-0.0234358,13.65,-3.75,37.05,0.261057,0.234712,9.84159
29765209,0.16192,0.0340885,-0.00106526,12.45,-4.35,37.35,0.0191602,0.692161,10.9601
29778378,-0.152333,0.04048,-0.00852211,12.75,-2.85,36.6,0.215552,0.244292,10.1314
29791371,0.0585895,-0.02024,-0.00958738,12.75,-2.55,36.9,-0.0886157,-0.0790356,8.79497
29814216,0.0777643,-0.00745685,-0.0330232,12.6,-4.95,36,-0.570015,0.723296,10.7637
29827378,-0.208792,0.0298274,-0.0383495,13.65,-2.4,35.7,-0.342488,0.136516,10.0164
29850203,0.174703,-0.0266316,-0.0553937,13.5,-3.3,36.3,-0.0239502,0.637075,10.5864
29863376,-0.136354,-0.02024,-0.0628506,13.65,-3,35.7,-0.0766406,0.311353,10.5601
29886209,-0.0436758,0.04048,-0.0479369,11.85,-3,36.75,0.0646655,-0.146096,8.67282
29899379,0.181095,0.0245011,-0.0490022,13.35,-3.45,35.4,-0.110171,0.706531,9.262
29922203,0.0234358,-0.0479369,-0.0937433,13.05,-4.35,35.85,-0.641865,0.814307,11.6187
29935381,-0.0777643,0.0735032,-0.0681769,12,-2.55,35.85,-0.455054,0.744851,11.4558
29948378,0.157659,0.0149137,-0.0543285,12.45,-2.85,36.9,-0.282612,0.292192,9.47755
29971203,0.246076,0.0149137,-0.0884169,12.9,-3.75,36.45,-0.0862207,0.153281,10.6032
29983377,-0.16192,0.0191748,-0.117179,12.9,-2.4,36.45,0.182021,0.325723,9.45599
30006209,-0.0713727,0.0532632,-0.133158,12,-4.05,35.25,-0.0742456,0.325723,8.2968
30018378,0.333428,-0.0426106,-0.133158,12.75,-2.55,35.25,-0.390388,0.936453,11.1157
30041203,-0.112918,0.00319579,-0.148072,12.6,-3,34.65,-0.435894,1.05381,11.1565
30053403,-0.0532632,-0.0500674,-0.136354,11.85,-1.65,36,0.100591,0.335303,8.2034
30076203,0.243946,-0.0266316,-0.155529,13.35,-2.7,37.05,0.234712,0.60115,10.311
30088376,0.00106526,-0.0735032,-0.135289,12.15,-1.95,35.7,-0.0910107,1.10889,11.1469
30111242,0.185356,-0.00426106,-0.0777643,12.15,-1.65,35.4,0.668211,0.924478,9.62125
30124379,0.177899,-0.0298274,-0.125701,12.45,-2.1,34.8,0.555645,0.900527,9.32427
30147203,0.108657,0.0948085,-0.115049,11.4,-1.35,34.2,0.356858,0.998723,10.2272
30159376,-0.393083,-0.0340885,-0.103331,13.35,-1.65,34.95,0.383203,1.07776,9.44402
30182222,-0.294013,-0.056459,-0.156594,11.55,-1.95,35.4,0.136516,0.531694,9.37456
30195379,0,0.0415453,-0.0937433,10.95,-2.1,34.2,-0.704136,1.06818,11.3696
30218203,-0.0319579,0.0170442,-0.0777643,10.95,-1.8,34.5,0.483794,0.804727,10.7445
30230410,-0.0500674,-0.0255663,-0.0298274,12.45,-0.6,33.75,0.548459,0.292192,8.6369
30253204,0.257794,0.076699,-0.00426106,11.1,-1.2,34.35,0.814307,0.385598,8.69917
30265373,-0.00852211,0.0266316,0,12.9,-0.15,35.7,0.833467,1.16158,10.4212
30288203,-0.127832,0.00852211,0.0319579,12.6,0.15,33.9,0.387993,0.677791,9.86794
30300379,0.166181,0.0415453,0.0969391,12.6,-0.15,34.65,0.526904,0.656235,9.14943
30323203,0.355798,0.0798948,0.12144,11.85,-0.15,34.35,-0.107776,1.42743,10.4763
30335373,-0.395213,0.0170442,0.0234358,12.15,-0.45,33,0.450264,1.76513,9.49671
30358216,-0.460194,-0.120375,-0.0191748,11.85,-0.9,33,-0.294587,1.11368,9.42246
30371378,-0.291882,0.0617853,0.0298274,11.55,-1.95,33.6,-1.31247,0.589175,10.0116
30394203,0.499609,0.0820254,0.0884169,10.5,-1.65,31.95,-0.62031,1.25499,11.2666
30406376,-0.18216,-0.052198,0.0330232,10.65,-1.8,33.45,0.141306,1.36037,10.4164
30419378,-0.26312,-0.0223706,-0.00958738,12.45,-1.35,33.45,-0.285007,0.0598755,7.64057
30442203,0.451672,0.0990696,-0.0127832,12.45,0,33.75,-0.153281,0.761616,9.83441
30454374,-0.403735,-0.0553937,-0.0756338,11.55,0.15,33.3,0.354463,1.57832,11.0295
30477216,-0.291882,0.02024,-0.0553937,11.7,0.6,33.75,-1.22865,0.0718506,9.1662
30490377,0.569916,0.0905475,0.00106526,11.85,-1.2,33.6,-0.637075,0.974773,10.1673
30513203,-0.171508,-0.0703075,-0.0884169,11.4,0,33.75,0.819097,1.74836,11.202
30526377,-0.548611,-0.0841559,-0.108657,12.15,0.15,32.55,-0.126936,0.234712,8.59858
30549209,0.500674,0.113983,-0.0308927,10.8,0.45,31.95,0.277822,0.835862,10.2559
30562378,0.0426106,0,-0.0106526,11.85,-0.15,33.9,0.311353,1.55676,11.4918
30585203,-0.0745685,0.036219,-0.0298274,11.85,-0.15,31.5,-0.0119751,0.754431,9.46797
30598382,0.128897,0.0628506,-0.00213053,11.7,0.3,31.65,0.268242,0.905317,9.05124
30611378,-0.0617853,0.0266316,-0.0330232,11.1,0.15,33.3,0.320933,1.40348,10.4499
30634203,-0.289752,-0.0426106,-0.0127832,12.15,0.9,32.55,0.100591,1.09452,10.8882
30647376,0.175769,0.0255663,0.0639159,10.95,0.3,31.65,-0.277822,1.02746,10.5817
30670210,0.273773,0.056459,0.123571,11.1,0.9,30.9,0.63947,1.10889,10.2559
30683378,-0.126766,-0.00852211,0.0862864,10.95,0.3,31.65,1.21906,1.12326,9.07519
30706203,-0.197074,0.0298274,0.102265,10.2,0.6,32.7,0.474214,0.699346,8.24651
30718381,0.317449,0.0884169,0.152333,10.65,1.35,32.1,-0.332908,1.77231,11.5828
30741203,-0.184291,0.0149137,0.14168,11.55,1.2,31.95,0.0479004,1.9735,11.0056
30753377,-0.0276969,-0.0415453,0.131028,10.8,0.9,33,-0.110171,1.34361,8.3447
30776216,0.290817,0.0287621,0.117179,10.05,1.65,33.6,-0.282612,1.5855,10.0979
30789377,-0.150202,0.0490022,0.0980043,11.55,0.9,31.95,0.689766,1.77231,10.1003
30812203,-0.133158,0.0170442,0.100135,10.65,1.35,33.75,0.141306,1.13045,8.55786
30824377,0.253533,0.0308927,0.11931,11.4,1.8,31.35,-0.126936,1.58071,10.1529
30837381,-0.0990696,0.04048,0.103331,10.95,1.05,30,-0.0407153,1.79626,10.7948
30860203,-0.13955,0.0127832,0.107592,10.5,0.9,31.5,-0.210762,1.17595,9.16859
30882203,0.156594,0.0351537,0.0958738,9.6,2.55,31.35,-0.313748,1.47054,10.0284
30895377,-0.0660464,0.0458064,0.072438,10.65,1.8,32.1,-0.102986,1.70046,10.1458
30908376,-0.0511327,-0.00213053,0.0436758,10.95,1.8,31.65,-0.229922,1.49689,9.5949
30931203,-0.00106526,0.0415453,0.02024,9.9,1.05,31.35,-0.328118,1.46096,9.79369
30943376,-0.00639159,0.0458064,0.0117179,11.7,2.1,32.4,-0.00239502,1.5855,10.0021
30966209,-0.0532632,0.0138484,-0.00213053,10.5,1.95,31.95,-0.0311353,1.4418,9.88949
30979379,-0.0468716,0.0330232,-0.00319579,9.9,2.85,32.4,-0.0263452,1.36037,9.44881
31002203,0.0617853,0.0127832,-0.00106526,11.55,1.95,31.95,-0.215552,1.45378,10.1146
31014381,-0.0511327,0.0127832,-0.0138484,12.15,2.7,30.45,-0.287402,1.52323,10.0907
31037203,-0.00319579,-0.00319579,-0.0117179,11.85,1.2,33.3,-0.134121,1.22146,9.64281
31049377,0.0383495,-0.0127832,-0.015979,11.7,1.35,31.35,0.00718506,1.42504,10.2128
31072251,-0.0745685,0.0170442,-0.0234358,12,2.55,31.35,-0.0359253,1.20469,10.0188
31085384,0.00106526,0.015979,-0.0170442,10.8,1.2,31.95,0.249082,1.14961,9.68352
31108203,0.00745685,-0.00106526,-0.0191748,10.05,2.7,30.9,0.189207,1.31008,10.0571
31120377,-0.0628506,0.0181095,-0.0276969,10.8,3,30.9,0.0191602,1.19272,9.935
31143222,0.0191748,0.0394148,-0.0276969,10.95,1.35,31.05,-0.114961,1.2023,9.65718
31156378,0.036219,0.0170442,-0.0298274,10.2,2.55,31.05,-0.122146,1.38193,10.0835
31169376,-0.04048,0.00639159,-0.0458064,10.5,0.9,31.2,-0.0550855,1.29571,9.96374
31192203,0,0.00213053,-0.0500674,10.95,2.55,31.65,-0.100591,1.2526,9.81764
31204377,0.00532632,0.0117179,-0.0479369,12.45,2.55,32.4,0.0670606,1.35319,10.0931
31227203,-0.036219,0.00106526,-0.0426106,10.65,1.8,32.1,-0.00479004,1.20469,9.8847
31240376,0.0106526,0.00532632,-0.04048,11.4,1.05,30,0.0981958,1.1999,9.85836
31264222,0.0127832,0.00106526,-0.0319579,10.65,1.35,32.1,0.110171,1.18793,10.1098
31277379,-0.0308927,0.00319579,-0.0298274,9.3,1.65,31.95,0.0479004,1.10889,9.92063
31300203,0.00426106,0.00745685,-0.0234358,10.2,1.8,32.4,0.0455054,1.10171,9.90626
31312413,-0.00213053,0.0127832,-0.0255663,11.55,1.95,30.9,0,1.08973,10.1673
31335203,-0.0681769,0.0138484,-0.0276969,11.4,0.6,31.65,0.00958008,0.843047,9.99248
31347377,-0.0255663,0.0127832,-0.0351537,10.95,1.8,31.65,-0.143701,0.684976,9.78172
31370213,0.0298274,0.0181095,-0.0319579,10.5,3,32.25,-0.287402,1.03225,10.4356
31383379,-0.052198,0.00426106,-0.0372843,10.65,1.05,31.35,-0.253872,0.883762,10.3445
31396374,0.0298274,-0.00852211,-0.0287621,11.85,2.4,32.25,-0.174836,0.761616,10.117
31419203,0.036219,0.0181095,-0.0298274,10.95,1.8,32.4,-0.0311353,0.902922,10.0571
31432413,-0.0138484,0.0234358,-0.0340885,10.8,1.65,31.5,0.160466,0.740061,9.69071
31455203,-0.0191748,-0.00852211,-0.0426106,11.55,3.45,32.25,0.155676,0.778381,9.74579
31467374,-0.0266316,-0.00639159,-0.0447411,11.4,1.05,31.35,-0.196392,0.859812,10.0931
31490213,-0.00106526,0.0149137,-0.0383495,11.85,2.7,31.95,-0.102986,0.838257,10.0763
31503378,0.02024,0,-0.0330232,11.7,2.55,30.3,0.0766406,0.890947,10.0859
31526203,0.00106526,-0.00745685,-0.0287621,10.2,1.8,31.35,0.0838257,0.910107,10.0236
31538376,-0.00852211,0.0138484,-0.0319579,10.95,2.85,31.35,0.0119751,0.778381,9.94937
31561216,-0.0170442,0.0149137,-0.0266316,11.55,2.7,30.45,0.138911,0.792751,9.93021
31574377,-0.0276969,-0.00426106,-0.0255663,10.05,2.7,31.2,0.0838257,0.783171,9.96134
31597203,-0.00213053,0.00532632,-0.0213053,9.3,1.2,30.9,0.0143701,0.780776,9.93021
31609387,0.00426106,0.0138484,-0.015979,9.6,2.1,31.65,-0.0981958,0.785566,10.014
31632209,-0.00106526,0.00532632,-0.0213053,12,0.6,31.05,-0.0431104,0.811912,9.97571
31645375,-0.00319579,0.00213053,-0.0255663,11.7,2.85,31.35,-0.0838257,0.816702,10.0164
31658376,-0.0149137,0.00319579,-0.0298274,10.2,2.85,30.3,-0.0838257,0.864602,9.98529
31681216,-0.00639159,0.00745685,-0.0266316,9.6,1.05,31.05,-0.0694556,0.752036,9.93021
31694377,0.00958738,0.00639159,-0.0330232,12.6,1.65,31.5,-0.110171,0.838257,9.95895
31717203,-0.00639159,0.00639159,-0.0500674,12.45,1.35,30.6,-0.220342,0.934058,10.0116
31729386,-0.0191748,0.00213053,-0.0628506,11.1,2.4,31.95,-0.285007,0.826282,9.99487
31752209,-0.015979,0.00532632,-0.0937433,10.05,1.95,31.2,-0.354463,0.783171,9.97092
31764377,-0.00852211,0.00852211,-0.113983,10.65,3.3,31.05,-0.435894,0.816702,9.9326
31787203,-0.00639159,-0.00106526,-0.137419,10.8,3,31.95,-0.517324,0.787961,9.9829
31799381,-0.00319579,-0.0149137,-0.169377,11.4,3.3,31.65,-0.414338,0.811912,10.0021
31822203,0,-0.0149137,-0.205596,10.8,2.4,30.15,-0.447869,0.802332,10.05
31834377,-0.00213053,-0.0106526,-0.236489,10.65,3.3,31.05,-0.433499,0.864602,9.97092
31857216,-0.00958738,-0.015979,-0.269512,10.8,2.7,31.95,-0.411943,0.831072,9.95416
31870377,-0.00958738,-0.0234358,-0.302535,9.9,2.55,31.65,-0.445474,0.890947,9.97092
31893203,-0.0127832,-0.0234358,-0.331297,12.15,1.2,31.95,-0.510139,0.931663,10.0164
31905377,-0.00639159,-0.0213053,-0.36219,10.65,2.85,31.35,-0.519719,0.893342,10.0452
31928209,-0.0127832,-0.0319579,-0.400539,10.8,1.95,31.5,-0.56283,0.878972,9.92781
31940378,-0.0149137,-0.0394148,-0.433563,10.8,1.95,31.5,-0.543669,0.866997,9.92063
31963203,-0.00958738,-0.0351537,-0.470847,10.5,3,32.25,-0.543669,0.881367,9.94937
31975391,-0.0149137,-0.0479369,-0.510262,10.95,3.3,31.35,-0.490979,0.881367,10.0092
31998203,-0.0181095,-0.0511327,-0.54222,10.2,3.3,31.35,-0.500559,0.831072,10.0092
32011376,-0.0127832,-0.0490022,-0.575243,10.65,4.05,31.35,-0.555645,0.981958,9.93979
32024376,-0.0149137,-0.0532632,-0.609331,10.65,4.05,30.6,-0.507744,0.878972,9.93739
32047209,-0.0191748,-0.0607201,-0.634898,9.9,3.3,31.35,-0.450264,0.876577,9.94458
32060379,-0.0170442,-0.0617853,-0.664725,10.8,2.4,29.85,-0.371228,0.922083,10.0332
32083203,-0.0245011,-0.0671117,-0.688161,10.95,4.8,30.6,-0.356858,0.938848,9.98529
32095381,-0.015979,-0.0628506,-0.707336,11.4,3.3,31.05,-0.316143,0.955613,10.0045
32118203,-0.0138484,-0.0660464,-0.728641,12,4.05,31.05,-0.208367,0.926873,9.96374
32131377,-0.0127832,-0.0617853,-0.752077,10.95,2.85,31.65,-0.296982,1.0107,10.0092
32154216,-0.0191748,-0.0745685,-0.768056,11.7,4.35,31.35,-0.237107,0.886157,9.92542
32167377,-0.0223706,-0.0692422,-0.784035,11.1,4.2,30.9,-0.146096,0.934058,9.85117
32190203,-0.0234358,-0.072438,-0.789361,10.65,5.1,30.3,-0.110171,0.819097,9.85357
32203377,-0.00852211,-0.0713727,-0.798948,10.2,4.8,32.1,-0.110171,0.955613,9.95416
32216381,0.00213053,-0.0703075,-0.809601,10.8,6,30.9,-0.325723,0.981958,10.0907
32239203,-0.0191748,-0.0660464,-0.828776,10.8,5.25,30.45,-0.368833,1.04902,10.0835
32251376,-0.0117179,-0.0777643,-0.861799,10.65,5.85,31.35,-0.402363,1.07297,9.95176
32274216,-0.0287621,-0.0735032,-0.895887,11.85,5.7,31.2,-0.505349,1.14003,10.0595
32287378,-0.0511327,-0.0852212,-0.921454,12,5.1,30.6,-0.500559,0.960403,10.038
32310203,-0.0276969,-0.102265,-0.944889,12,6.15,32.1,-0.222737,0.914898,9.89428
32322376,-0.0117179,-0.105461,-0.951281,10.8,7.2,31.2,-0.0407153,1.03704,9.97092
32345209,-0.0330232,-0.0894822,-0.955542,10.8,4.95,30.45,0.100591,0.869392,9.87512
32358379,-0.00852211,-0.0862864,-0.945955,10.95,5.85,31.35,0.203577,0.900527,9.80088
32381203,-0.00532632,-0.0798948,-0.952346,11.85,6.45,29.85,0.0934058,1.02028,9.97332
32393400,-0.0191748,-0.0884169,-0.952346,10.65,5.55,30.6,-0.0934058,1.00112,10.0428
32416203,0.00213053,-0.0873517,-0.950216,11.85,7.5,30.9,-0.136516,1.03944,9.96613
32428377,-0.00426106,-0.0958738,-0.948085,11.1,6.75,31.2,-0.0119751,1.14961,10.0691
32451241,-0.0276969,-0.100135,-0.94702,11.1,7.95,31.5,0.136516,1.05381,9.96134
32464378,-0.0255663,-0.0916127,-0.941694,11.55,5.7,31.2,0.215552,1.03465,9.9829
32487203,-0.0394148,-0.0990696,-0.923584,11.55,6.45,30.45,0.498164,0.996328,9.96134
32499377,-0.0308927,-0.0852212,-0.887365,10.95,6.15,31.35,0.55325,0.917293,9.91823
32522222,-0.0170442,-0.0692422,-0.857538,12.6,7.5,30.9,0.467029,0.905317,9.89907
32535378,-0.0170442,-0.0671117,-0.829841,12,6.9,32.7,0.371228,0.855022,9.76974
32548373,-0.00532632,-0.0671117,-0.80747,12,6.9,32.1,0.296982,0.847837,9.92302
32571242,-0.0149137,-0.0628506,-0.793622,10.95,8.4,31.05,0.153281,0.866997,9.95655
32584378,0.00639159,-0.0681769,-0.782969,12.45,7.35,31.05,0.102986,0.907712,9.88231
32607203,-0.00106526,-0.0713727,-0.779773,11.1,6.75,31.5,0.131726,0.993933,10.0931
32620376,-0.00532632,-0.0713727,-0.774447,11.55,7.5,31.5,0.0359253,0.941243,10.0955
32643222,0.00745685,-0.0713727,-0.76699,12,8.4,31.35,0.198787,0.941243,10.014
32656379,-0.00319579,-0.0681769,-0.765925,12.9,7.95,31.95,0.253872,0.883762,10.0595
32679203,-0.0106526,-0.0671117,-0.760599,11.1,7.2,31.95,0.261057,1.04183,9.97332
32691426,-0.0266316,-0.0639159,-0.759533,11.4,10.35,30.3,0.289797,0.843047,9.90865
32714203,-0.0181095,-0.0660464,-0.742489,11.85,9.3,30.9,0.263452,0.989143,10.014
32727374,-0.0298274,-0.0617853,-0.723314,11.85,8.25,31.2,0.332908,0.862207,9.96613
32740374,0.00319579,-0.0649811,-0.702009,12.6,8.7,32.25,0.304167,0.962798,10.0236
32764222,0.00745685,-0.0628506,-0.699879,12,7.65,31.05,0.172441,0.996328,10.1434
32777377,-0.0383495,-0.0553937,-0.692422,12.9,8.7,31.5,0.347278,0.972378,10.0356
32800203,-0.036219,-0.0660464,-0.662594,12.75,9.15,31.05,0.589175,0.986748,9.86075
32812420,-0.0372843,-0.0777643,-0.630637,11.1,9,31.95,0.433499,1.0083,9.89668
32835203,-0.0191748,-0.0447411,-0.592287,11.7,8.1,31.65,0.366438,0.855022,9.8392
32847376,0.00958738,-0.0319579,-0.568851,11.85,9.75,31.2,0.241897,0.855022,9.87752
32870215,0.00532632,-0.036219,-0.561394,12.45,8.85,33.15,0.126936,0.838257,9.99487
32883378,-0.0149137,-0.052198,-0.558199,12.45,9.15,32.1,-0.0167651,0.814307,9.88949
32906203,0.0117179,-0.056459,-0.560329,12.45,9.9,32.4,0.0239502,0.912502,10.0619
32918376,-0.00106526,-0.056459,-0.553937,11.85,8.7,31.95,0.179626,1.01309,10.0859
32931425,-0.0106526,-0.04048,-0.549676,13.65,9.3,31.5,0.316143,1.0083,10.0092
32954203,-0.0106526,-0.036219,-0.54222,12.6,9.75,31.5,0.217947,0.893342,10.0212
32967373,-0.0308927,-0.04048,-0.536893,13.5,10.65,31.35,0.105381,0.922083,10.0021
32990213,-0.036219,-0.0426106,-0.535828,12.45,9.6,31.05,0.00958008,0.814307,9.93979
33003378,-0.0266316,-0.036219,-0.541154,12.9,9.3,31.95,-0.0311353,0.694556,9.82483
33026203,-0.0223706,-0.0458064,-0.540089,11.4,11.1,33.15,0.0742456,0.740061,9.90386
33038376,-0.00852211,-0.0479369,-0.546481,12.75,9.6,32.7,-0.0215552,0.862207,9.96613
33061219,-0.00958738,-0.0447411,-0.559264,11.7,9.15,31.65,-0.105381,0.859812,10.0547
33074374,-0.00852211,-0.0479369,-0.557133,13.5,8.85,32.1,0.0215552,0.814307,10.0092
33097203,0.00426106,-0.0468716,-0.560329,13.65,9.3,31.95,0.153281,0.831072,9.89907
33109383,0.00852211,-0.0426106,-0.563525,12.9,12,31.2,-0.0143701,0.946033,10.0092
33132209,-0.0149137,-0.0415453,-0.575243,13.95,10.8,32.55,-0.0910107,0.895737,10.0356
33145372,-0.0181095,-0.0479369,-0.591222,12.15,11.55,31.95,-0.0838257,0.809517,9.99487
33158376,0.154463,-0.0287621,-0.578439,12.15,9,32.25,-0.249082,0.874182,10.5529
33181219,0.0852212,-0.015979,-0.58483,13.35,11.55,31.95,-0.347278,1.06578,10.3709
33194374,0,-0.0745685,-0.624245,13.5,10.35,32.4,0.119751,0.948428,9.6955
33217203,-0.0607201,-0.0660464,-0.657268,12.9,9.75,30.45,0.155676,0.907712,9.48713
33229382,-0.0777643,-0.0383495,-0.664725,13.8,11.1,33.45,0.122146,0.831072,9.8392
33252209,-0.0628506,-0.0735032,-0.666856,14.7,10.8,31.95,0.184417,0.900527,10.1745
33264372,-0.0149137,-0.0798948,-0.660464,12,9.6,32.1,-0.0718506,0.926873,10.2895
33287203,0.0245011,-0.0394148,-0.64555,12.75,9.15,32.4,-0.0215552,0.974773,10.2559
33299378,-0.0181095,-0.0532632,-0.630637,13.35,10.05,32.55,0.5772,0.799937,9.88949
33322203,-0.0127832,-0.0809601,-0.619984,13.8,10.65,32.7,0.728086,0.795147,9.75298
33334374,-0.015979,-0.0458064,-0.596548,13.65,10.05,32.25,0.337698,0.936453,10.026
33357219,-0.0458064,-0.0213053,-0.5827,12.45,11.1,32.4,0.215552,0.790356,9.94937
33370374,-0.0234358,-0.0628506,-0.56246,13.65,10.8,31.95,0.287402,0.692161,9.80806
33393203,-0.0127832,-0.0681769,-0.550742,13.5,10.65,32.1,0.308958,0.752036,9.90626
33406374,-0.0117179,-0.0330232,-0.526241,14.4,10.8,31.5,0.464634,0.775986,9.99248
33429209,0.00639159,-0.0308927,-0.510262,13.35,10.8,32.25,0.507744,0.876577,10.1122
33441376,-0.0170442,-0.0394148,-0.487891,13.35,10.8,32.55,0.205972,0.828677,10.1146
33464203,-0.0181095,-0.036219,-0.48363,13.35,11.55,31.95,0.131726,0.747246,9.84878
33476382,0.00213053,-0.0340885,-0.479369,12.6,10.8,32.25,0.220342,0.761616,9.95416
33499203,-0.0191748,-0.0511327,-0.471912,13.8,11.1,32.4,0.368833,0.809517,9.97811
33511376,-0.0319579,-0.0511327,-0.464455,13.5,11.85,32.7,0.265847,0.775986,9.92302
33534217,-0.00319579,-0.0330232,-0.433563,14.55,11.4,33.15,0.378413,0.795147,10.038
33547377,-0.0266316,-0.0340885,-0.419714,12.6,12,33.3,0.517324,0.756826,9.9805
33560376,-0.0127832,-0.0319579,-0.4048,13.5,11.4,32.4,0.443079,0.65384,9.81764
33583203,0.0234358,-0.0149137,-0.38243,13.35,10.5,32.25,0.258662,0.764011,9.9326
33595384,-0.00639159,-0.0308927,-0.374973,13.05,11.4,32.7,0.210762,0.869392,10.0907
33618203,-0.0266316,-0.036219,-0.36219,13.35,11.55,31.5,0.364043,0.807122,9.97571
33630377,-0.0181095,-0.0319579,-0.34195,13.5,11.4,32.7,0.452659,0.725691,9.90626
33653221,-0.00532632,-0.0191748,-0.329167,13.95,12.75,32.25,0.440684,0.843047,9.95895
33666374,-0.0117179,-0.0149137,-0.315318,13.8,11.4,33.45,0.301772,0.828677,10.0332
33689203,-0.0245011,-0.0245011,-0.298274,14.85,12.15,32.7,0.306563,0.804727,10.0715
33701374,-0.0181095,-0.0223706,-0.282295,13.8,11.4,31.65,0.308958,0.752036,9.93021
33724210,0.00532632,-0.00745685,-0.267381,13.65,11.25,32.25,0.330513,0.711321,9.97811
33737374,-0.00852211,-0.0170442,-0.258859,14.85,11.4,34.2,0.323328,0.735271,9.95655
33760203,0.00639159,-0.0138484,-0.246076,15,10.8,34.35,0.203577,0.826282,9.98769
33773404,-0.0117179,-0.0117179,-0.243946,13.35,10.5,32.55,0.227527,0.843047,10.0236
33786673,-0.0170442,-0.0149137,-0.237554,13.95,11.25,33.6,0.153281,0.761616,9.9326
33809203,-0.00532632,-0.0170442,-0.230097,13.8,12.15,32.1,0.325723,0.802332,9.935
33821374,-0.0234358,-0.0117179,-0.22264,13.65,12,32.25,0.225132,0.814307,10.0212
33845205,-0.0117179,-0.0117179,-0.215183,13.5,11.85,33.15,0.172441,0.768801,9.92542
33858376,-0.00852211,-0.015979,-0.217314,13.8,11.85,33.15,0.0981958,0.747246,10.0308
33881203,-0.0213053,-0.015979,-0.22051,13.8,12.15,33.75,0.0407153,0.804727,10.0045
33893404,-0.0138484,-0.0117179,-0.225836,13.95,11.25,33,0.0311353,0.675396,9.94458
33916203,-0.00319579,-0.0213053,-0.229032,13.8,12.15,33.45,0.100591,0.730481,9.85836
33928376,0,-0.0170442,-0.234358,14.55,12.45,32.7,0.0383203,0.771196,10.05
33951242,-0.00319579,-0.0138484,-0.237554,13.5,11.1,32.7,-0.0718506,0.780776,10.0571
33964376,-0.00852211,-0.0127832,-0.254598,14.85,10.35,33.45,-0.0143701,0.845442,9.91344
33987203,-0.0106526,-0.0191748,-0.262055,14.4,12,33,0.129331,0.773591,9.92781
34000373,-0.0127832,-0.0276969,-0.267381,13.65,12,32.55,0.122146,0.802332,9.99966
34013418,-0.015979,-0.0149137,-0.275903,15.3,11.1,33.75,0.00239502,0.799937,10.0739
34036203,-0.00745685,-0.0149137,-0.285491,13.65,12.75,32.55,-0.00239502,0.756826,9.97092
34049377,-0.00106526,-0.0149137,-0.299339,14.7,12.3,32.25,-0.0335303,0.696951,9.91105
34072254,-0.00639159,-0.0255663,-0.316384,14.4,12.75,33,-0.0215552,0.780776,9.96853
34085374,-0.0255663,-0.0234358,-0.331297,14.25,11.4,33.15,-0.0526904,0.797542,10.026
34108203,-0.02024,-0.0255663,-0.339819,14.7,12,32.25,0,0.823887,9.93739
34120374,-0.00213053,-0.0287621,-0.357929,14.85,11.85,32.7,-0.0574805,0.764011,10.0116
34144222,-0.0191748,-0.0255663,-0.369647,14.85,12.9,32.1,-0.0886157,0.785566,9.91584
34157376,0.00532632,-0.0276969,-0.381365,14.25,13.2,33.15,-0.0838257,0.766406,9.87033
34170376,-0.0170442,-0.0351537,-0.397344,13.8,11.85,32.7,-0.00239502,0.814307,10.038
34193247,-0.0170442,-0.0330232,-0.415453,15.75,13.05,32.55,0.0143701,0.855022,9.8847
34206376,0,-0.0351537,-0.42504,15,11.25,33.9,-0.0622705,0.871787,10.0979
34229203,-0.0149137,-0.0394148,-0.434628,13.8,12.15,33.45,-0.100591,0.866997,10.0547
34241373,-0.00852211,-0.036219,-0.452737,14.55,12.45,33.75,-0.00958008,0.792751,9.92542
34265205,-0.0106526,-0.04048,-0.458064,14.25,12.15,32.7,0.131726,0.821492,9.96853
34278376,-0.0255663,-0.0468716,-0.461259,14.4,12,32.55,0.208367,0.840652,10.0021
34301203,-0.02024,-0.0415453,-0.461259,14.7,12.3,32.25,0.165256,0.799937,10.026
34314381,-0.02024,-0.0319579,-0.453803,15.75,12.75,34.35,0.189207,0.764011,9.9829
34327376,-0.0191748,-0.0266316,-0.44528,14.7,12.3,33,0.222737,0.752036,9.94458
34350203,0.00639159,-0.0340885,-0.450607,15.45,12.75,33,0.0790356,0.732876,9.86554
34363374,0.00106526,-0.036219,-0.451672,14.85,12.9,32.4,0.0790356,0.881367,10.0859
34386209,-0.0319579,-0.0351537,-0.458064,16.35,13.2,34.2,0.117356,0.816702,9.98769
34399376,-0.00426106,-0.0458064,-0.454868,15.75,11.25,33,0.225132,0.926873,9.94937
34422203,-0.0181095,-0.036219,-0.448476,14.7,12.75,33.6,0.244292,0.883762,10.141
34435382,-0.0319579,-0.0276969,-0.449542,15.75,14.25,32.55,0.165256,0.759221,9.93739
34458203,0.00639159,-0.0308927,-0.446346,15,12.75,32.25,0.0934058,0.747246,9.89428
34470376,-0.0106526,-0.0394148,-0.453803,15.6,12.45,34.2,0.0981958,0.819097,9.96613
34493247,-0.00532632,-0.0447411,-0.455933,15.3,12.45,34.5,0.198787,0.857417,9.93021
34506377,0.00319579,-0.0447411,-0.441019,15.9,11.1,32.7,0.289797,0.955613,10.1146
34519376,-0.0394148,-0.0447411,-0.431432,14.7,13.5,33,0.445474,0.890947,10.1434
34542203,-0.0394148,-0.0479369,-0.40267,17.1,13.65,33.75,0.668211,0.730481,9.76735
34554399,0.00426106,-0.0372843,-0.361125,14.7,12.75,33.9,0.917293,0.759221,9.87033
34577203,-0.0138484,-0.0330232,-0.306796,15.6,12.15,34.2,1.07297,0.864602,9.9805
34589377,-0.0181095,-0.02024,-0.246076,15.45,13.8,33.6,1.05381,0.814307,9.91823
34612214,-0.00745685,-0.00958738,-0.188552,15.6,12.15,34.5,0.979563,0.780776,10.0068
34625376,-0.0106526,0.00106526,-0.145941,17.1,12.15,32.7,0.826282,0.847837,10.0068
34648203,0.00213053,0.00213053,-0.1012,16.2,12.75,33.6,0.60594,0.783171,10.0428
34660374,-0.00745685,0.00852211,-0.0660464,15.75,12.3,34.35,0.603545,0.764011,9.94937
34684222,-0.00213053,0.00745685,-0.0383495,14.85,13.2,34.2,0.531694,0.754431,9.99727
34697376,-0.0149137,0.00319579,-0.0106526,15.75,13.8,33.9,0.543669,0.716111,9.9829
34720203,-0.00532632,0.015979,0.00639159,15.9,12.9,35.55,0.462239,0.775986,9.95655
34733384,-0.00319579,0.0245011,0.02024,15,13.05,34.65,0.162861,0.807122,10.0236
34746376,-0.0117179,0.0127832,0.0181095,15.75,12.75,33,0.0287402,0.775986,9.90147
34769203,-0.00213053,0.00532632,0.0117179,15.3,13.2,33.75,0.0742456,0.694556,9.90865
34781373,-0.0127832,0.00213053,0.00745685,15.3,13.95,33.15,0.177231,0.809517,9.99966
34804209,-0.0181095,0.0117179,0.0149137,14.85,12.15,34.8,0.292192,0.742456,9.9326
34817377,0.00852211,0.00852211,0.02024,15.45,12.75,33,0.229922,0.802332,9.9805
34840203,-0.0106526,0.0106526,0.0234358,15,13.8,33.6,0.222737,0.790356,9.98529
34853382,-0.00532632,0.015979,0.0127832,15.45,11.55,33,0.129331,0.795147,9.87991
34876203,0.00532632,0.015979,0.0149137,15.6,12.45,33.45,0.0263452,0.780776,10.0212
34889377,-0.0213053,0.00213053,0.00639159,15.75,13.5,32.25,0.114961,0.874182,10.0404
34912238,0.00639159,0.00319579,0.00852211,15.9,12.15,33.75,0.196392,0.725691,9.98769
34925374,0.0117179,0.0117179,0.00639159,15.6,12.9,32.4,0.227527,0.881367,10.0883
34938374,-0.0298274,0.0138484,0.00426106,15.3,12.45,33.45,0.280217,0.845442,9.99727
34961203,-0.0245011,0,0.0117179,18.15,11.85,34.5,0.229922,0.699346,9.85836
34973384,-0.0127832,0.00532632,0.0149137,15.6,11.85,33.75,0.237107,0.65863,9.92542
34996203,-0.02024,0.00958738,0.0223706,16.2,13.5,33.6,0.347278,0.63468,9.8871
35008376,0.0117179,0.0106526,0.04048,15.9,11.4,33.15,0.490979,0.673001,9.90147
35031244,0.02024,0.0170442,0.0511327,13.95,13.5,33.6,0.328118,0.859812,10.0428
35044376,-0.0170442,0.0298274,0.0596548,16.5,13.05,34.35,0.193997,0.799937,10.0021
35067203,0.00213053,0.0287621,0.0479369,16.65,13.65,33.75,0.0119751,0.773591,9.93021
35080373,0,0.0127832,0.0319579,15.45,12.75,32.55,-0.215552,0.795147,10.0883
35103209,-0.0223706,0.00106526,0.0127832,15.9,13.65,32.7,-0.124541,0.814307,9.99966
35116377,-0.0106526,0.00106526,-0.00532632,15.75,13.5,33,0.0335303,0.833467,9.93021
35139203,-0.0181095,0.00319579,-0.00852211,14.55,12.45,33.45,0.189207,0.711321,10.0045
35152400,-0.00426106,0.0138484,-0.00426106,16.2,12.75,33.3,0.215552,0.673001,9.89668
35165376,0.00106526,0.0117179,-0.00426106,15.45,13.5,33,0.182021,0.723296,9.93739
35188203,-0.0213053,0.00532632,-0.00639159,16.8,13.5,33,0.129331,0.799937,9.96613
35200374,-0.00745685,0.00852211,-0.00106526,16.35,13.2,32.7,0.143701,0.711321,9.94458
35223209,-0.00213053,0.00532632,-0.00106526,16.2,12.75,33.9,0.208367,0.759221,9.9805
35236376,-0.00426106,0.00639159,0.00213053,16.65,12.9,33.45,0.263452,0.735271,9.92781
35259203,-0.00852211,0.0117179,0.00852211,16.35,12.9,33.45,0.352068,0.775986,9.89668
35272400,-0.00532632,0.0106526,0.00958738,15.45,12.3,32.55,0.213157,0.799937,9.96134
35295203,-0.00958738,0.0127832,0.00639159,15.45,12.3,32.55,0.126936,0.771196,10.0164
35308376,-0.00958738,0.00532632,0.00213053,15,13.5,33.6,0.160466,0.747246,9.94937
35331244,0.0106526,0.0106526,0.00532632,15.3,13.65,35.25,0.213157,0.797542,10.0188
35344376,-0.0127832,0.0106526,0.00426106,15.45,12.3,34.35,0.227527,0.833467,10.0021
35357376,-0.00852211,0.0106526,0.00426106,15.45,12.3,32.55,0.153281,0.780776,9.97092
35380203,-0.00639159,0.00426106,0.00426106,16.2,13.5,33.6,0.153281,0.742456,9.99008
35392400,-0.00958738,0.0106526,0.0106526,16.8,13.05,33.3,0.189207,0.742456,9.92063
35415203,0.00319579,0.0127832,0.00852211,15,12.75,33,0.208367,0.737666,9.96374
35428377,-0.00639159,0.00958738,0.00852211,15.3,12.45,34.2,0.225132,0.759221,10.05
35451241,-0.0191748,0.00532632,0.00852211,15.6,12.45,32.4,0.160466,0.761616,9.97811
35464374,-0.00319579,0.0117179,0.00745685,17.7,12.45,33.75,0.153281,0.778381,9.91823
35487203,-0.0127832,0.0106526,0.00852211,15.6,12.45,33.75,0.193997,0.768801,9.96374
35500374,-0.00213053,0.00639159,0.00319579,14.85,13.95,33.15,0.153281,0.780776,9.99248
35523209,0.00106526,0.00852211,0.00745685,15.75,13.05,33,0.174836,0.768801,10.014
35536376,-0.0117179,0.0117179,0.00532632,15.75,12.3,33.9,0.198787,0.773591,9.9829
35549376,-0.00426106,0.0117179,0.0106526,15.75,13.05,32.25,0.282612,0.687371,9.92063
35572236,-0.0106526,0.00426106,0.00319579,15.3,13.2,33.45,0.198787,0.771196,9.94458
35585376,-0.0170442,0.00852211,0.00745685,15.6,12.45,33.15,0.160466,0.775986,9.95895
35608203,-0.00852211,0.0149137,0.00426106,15,12,31.95,0.170046,0.802332,9.98529
35620373,0.00106526,0.0106526,0.00745685,14.55,13.2,33.45,0.184417,0.728086,10.0021
35643209,0,0.00958738,0.00958738,16.65,13.65,32.7,0.150886,0.811912,9.9805
35656377,-0.00852211,0.0138484,0.00852211,15.6,11.85,34.5,0.227527,0.759221,9.90626
35679203,-0.0138484,0.00639159,0.00532632,13.65,12,33.6,0.213157,0.771196,9.90386
35692401,-0.0138484,0.00852211,0.00319579,15.75,13.5,33,0.170046,0.754431,10.0188
35715203,-0.00532632,0.00958738,0.00745685,15.75,13.8,33,0.124541,0.787961,10.0236
35727377,-0.00426106,0.00745685,0.00745685,15.6,12.45,33.75,0.146096,0.778381,10.0188
35750240,-0.00745685,0.0127832,0.00426106,15,13.8,33.6,0.208367,0.792751,9.91344
35763374,-0.00745685,0.00852211,0.00852211,15.6,13.2,33.15,0.227527,0.740061,9.91584
35776372,-0.0127832,0.00745685,0.00319579,15.75,11.55,32.55,0.165256,0.718506,10.0092
35799203,-0.00319579,0.0127832,0.00745685,15.6,12.9,34.2,0.124541,0.787961,9.94458
35812407,-0.00958738,0.00852211,0.00745685,15.75,12.75,33.3,0.193997,0.785566,9.99487
35835203,-0.0149137,0.0106526,0.00639159,16.65,13.65,33.75,0.234712,0.716111,9.96374
35848371,-0.0106526,0.0106526,0.00639159,15.9,12.9,33.15,0.162861,0.720901,10.0452
35871212,-0.0106526,0.0170442,0.00639159,15.6,13.2,33.75,0.129331,0.754431,9.98769
35884379,-0.0149137,0.00745685,0,14.85,12.9,33.15,0.165256,0.711321,9.89668
35907203,-0.00213053,0.00532632,0.00639159,15,13.05,33.6,0.184417,0.807122,10.0021
35920376,-0.0138484,0.00745685,0.00852211,16.2,13.05,33.3,0.162861,0.716111,10.0356
35933421,-0.0106526,0.0106526,0.00319579,15.9,12.45,33.15,0.148491,0.711321,9.94697
35956204,-0.00106526,0.0106526,0.00639159,14.85,12.45,34.2,0.158071,0.764011,9.94937
35969371,-0.00745685,0.00639159,0.0106526,16.2,12,33.9,0.189207,0.787961,9.97332
35992228,-0.00639159,0.0149137,0.00958738,15.3,12.9,33.75,0.117356,0.766406,9.9829
36005377,-0.00532632,0.0106526,0.0106526,16.5,14.25,32.55,0.0886157,0.816702,10.0547
36028203,-0.00958738,0.00639159,0.00852211,15.9,14.7,32.7,0.208367,0.778381,9.95416
36041376,-0.00852211,0.00852211,0.00639159,15.6,13.65,33.75,0.189207,0.728086,9.87752
36064205,-0.02024,0.00745685,0.00106526,16.2,13.5,32.25,0.213157,0.766406,9.96134
36077379,-0.0117179,0.00958738,0.00213053,14.85,12.9,33.45,0.234712,0.740061,9.96613
36090373,0.00426106,0.00532632,0.00532632,15.75,14.25,33.3,0.162861,0.838257,10.0955
36113249,-0.00213053,0.00958738,0.0127832,15.3,13.2,34.5,0.107776,0.744851,9.96853
36126377,0.00426106,0.0117179,0.00532632,15.75,12.3,32.55,0.167651,0.768801,9.90865
36149203,-0.00852211,0.00319579,0.00426106,15.75,13.5,33.6,0.256267,0.771196,9.93979
36162376,-0.0181095,0.00639159,0.00639159,15.75,13.8,33.6,0.165256,0.747246,9.93021
36185209,-0.00213053,0.0106526,0.00639159,14.55,11.85,32.7,0.141306,0.790356,10.0212
36198379,-0.00852211,0.00958738,0.00852211,14.7,12,34.35,0.143701,0.847837,9.99966
36221203,-0.00639159,0.00639159,0.00426106,15.45,12.75,34.35,0.229922,0.766406,9.96853
36234381,-0.00426106,0.0117179,0.00745685,16.2,12.3,34.35,0.208367,0.787961,9.99487
36247378,-0.0138484,0.0106526,0.00639159,16.35,12.45,33.45,0.222737,0.692161,10.0356
36270203,-0.00958738,0.0127832,0.00639159,16.2,12,33,0.0862207,0.775986,9.9805
36283377,0.00213053,0.00852211,0.00532632,14.7,13.5,33.3,0.134121,0.737666,9.9829
36306209,-0.00426106,0.00426106,0.00745685,15.75,12.3,32.55,0.215552,0.742456,9.89907
36319378,-0.00319579,0.0117179,0.0117179,16.65,13.65,33.45,0.296982,0.656235,9.84399
36342203,0.00213053,0.0170442,0.0191748,15,12.3,33,0.277822,0.59636,9.86075
36354382,0.015979,0.0255663,0.0149137,16.2,13.8,33,0.0407153,0.689766,9.92063
36377203,0.00426106,0.0298274,0.00319579,16.65,13.2,33.75,0.0143701,0.656235,9.77214
36390376,0.513457,0.0319579,0.0607201,16.2,13.5,33.6,0.292192,0.63947,9.3554
36413242,0.0884169,-0.00958738,0.0756338,15.3,13.65,34.5,0.335303,1.36995,9.61407
36426378,0.0447411,0.0458064,-0.02024,15.45,12.3,33,-0.802332,-0.332908,10.2392
36439376,0.120375,-0.0436758,0.00213053,15.9,12.45,32.7,-0.208367,2.23934,14.5358
36462203,-0.441019,-0.0894822,0.0340885,15.6,13.65,33.15,-0.344883,0.0646655,12.1935
36475381,0.367516,0.148072,0.107592,14.85,13.65,34.2,0.301772,-0.356858,9.13506
36498203,0.288687,0.0639159,0.0958738,15.6,13.95,34.2,1.45857,0.984353,9.16859
36511377,-0.352602,-0.0458064,-0.00319579,15.45,13.05,33.9,0.61073,0.677791,8.98178
36534216,-0.151268,-0.0181095,-0.0117179,14.55,12.15,33.45,-0.273032,0.368833,9.65718
36547377,0.115049,0.0649811,0.0308927,15,13.5,33.3,-0.249082,0.677791,11.5612
36570203,0.0298274,0.0266316,0.0319579,15.9,13.65,32.1,0.344883,0.603545,10.7038
36583377,0.0213053,-0.0458064,0.0170442,15,13.5,33.9,0.60115,0.263452,9.27397
36596381,0.0415453,0.0394148,0.00852211,15.9,13.65,33.45,0.294587,0.5772,9.72424
36619203,-0.0852212,0.0543285,-0.00745685,15.9,12.45,33.15,0.457449,0.457449,10.0332
36632376,-0.0490022,-0.0234358,-0.0149137,15.3,11.85,33.45,0.0119751,0.498164,9.86075
36655216,0.015979,-0.0149137,-0.015979,15.75,13.05,32.55,0.280217,0.543669,10.2919
36668378,-0.0426106,0.0181095,-0.0255663,15.45,13.5,33.9,0.0814307,0.328118,9.93021
36691203,0.0330232,0.0287621,-0.0266316,14.85,12.9,33.45,0.232317,0.371228,9.65239
36704376,-0.02024,0.0223706,-0.04048,15.9,12.9,32.4,0.282612,0.464634,9.9829
36727209,-0.0798948,-0.0266316,-0.0596548,17.25,12.75,33.6,0.332908,0.347278,9.79848
36740379,0.0308927,-0.0127832,-0.0660464,16.2,12.3,33.9,0.0383203,0.237107,10.0763
36753376,-0.0255663,0.0255663,-0.0511327,14.85,13.65,33.15,0.146096,0.361648,10.3062
36776216,-0.00106526,0.00745685,-0.0543285,15.3,13.2,33.45,0.376018,0.337698,9.84399
36789377,-0.0308927,-0.00213053,-0.0585895,15.75,12.3,33.9,0.426313,0.352068,10.0452
36812203,-0.0852212,0.00852211,-0.0511327,15.75,13.5,33,0.318538,0.131726,9.75298
36825376,0.00106526,0.015979,-0.0500674,14.85,12.45,32.7,0.280217,0.0598755,9.7434
36848209,0.015979,-0.00106526,-0.0553937,17.25,13.8,33.3,0.196392,0.239502,10.1961
36861379,-0.0106526,-0.00532632,-0.0639159,15.45,13.8,33.3,0.268242,0.313748,9.97332
36884203,0,0.0138484,-0.056459,16.2,13.5,33.6,0.419128,0.270637,9.94458
36896381,0.0245011,0.0127832,-0.0447411,14.85,12.45,32.1,0.443079,0.0766406,10.0068
36919203,-0.00106526,-0.00213053,-0.0415453,15.9,13.95,33.75,0.419128,0.308958,10.3709
36932377,-0.0106526,-0.0170442,-0.0351537,16.65,13.65,34.2,-0.0550855,0.122146,9.61167
36945376,0.0937433,0.02024,-0.0351537,16.5,12.75,33.3,-0.0263452,0.447869,10.141
36968209,-0.0948085,0.0223706,-0.0713727,15.9,12.45,32.7,-0.198787,0.505349,10.2487
36981378,-0.335558,-0.0149137,-0.0894822,15.9,13.95,33.75,0.981958,2.33035,8.47643
37004203,-0.510262,0.0862864,-0.210922,16.2,13.05,33.3,1.23583,-0.965193,6.1844
37016382,-0.0692422,-0.256729,-0.203465,15.75,13.05,33.3,0.536484,1.11608,6.26822
37039203,0.467651,0.0692422,-0.0681769,16.8,14.55,33.3,-1.42504,1.89207,13.3096
37052376,-0.348341,0.0884169,-0.109722,15.6,14.4,34.2,-0.416733,1.42983,10.6296
37075216,0.0276969,-0.0436758,-0.12144,16.65,13.95,34.5,0.371228,-0.0479004,7.97587
37088378,0.256729,0.00852211,-0.117179,15.9,14.4,34.2,-0.170046,0.845442,10.6846
37111203,-0.185356,0.04048,-0.125701,15.9,13.95,33.45,-0.855022,0.495769,10.6631
37124376,0.0394148,0.0681769,-0.13955,16.2,13.5,34.65,-0.435894,0.419128,9.42007
37137381,-0.117179,-0.0308927,-0.175769,16.65,13.95,34.5,0.0359253,0.627495,9.63562
37160203,-0.235423,-0.0596548,-0.193878,15.75,13.8,34.35,0,0.153281,9.36738
37172377,0.0884169,0.0191748,-0.147006,16.2,13.05,33.6,-0.411943,0.397573,10.8882
37195216,-0.215183,0.0276969,-0.156594,17.25,13.8,34.65,-0.366438,0.938848,11.0367
37208377,-0.350472,-0.0713727,-0.176834,15.75,13.8,34.95,-0.162861,-0.0383203,9.45599
37231203,0.0383495,0.0319579,-0.132093,17.1,12.9,33.75,-0.0718506,-0.210762,8.15789
37244377,0.2024,-0.0319579,-0.120375,16.5,13.8,33.3,0.112566,1.50407,11.8175
37267209,-0.648746,-0.0276969,-0.132093,16.8,13.05,33,0.459844,0.335303,8.85245
37280378,-0.0617853,0.0809601,-0.0809601,16.2,13.8,33.9,-0.416733,-0.136516,6.91967
37303203,0.575243,-0.0553937,-0.0628506,16.65,12.45,34.8,-0.376018,1.76513,13.5443
37316382,-0.738228,0.00852211,-0.0958738,15.6,12.9,33.75,0.711321,0.673001,9.80806
37329378,0.0862864,0.248207,-0.183225,15.9,12.9,34.8,-0.60115,-2.15791,4.94857
37352203,2.18166,-0.272708,0.0181095,16.35,13.65,33.75,1.62861,-2.20821,9.78651
37365376,2.60351,0.196009,0.243946,16.65,11.4,33.75,1.23583,12.5451,10.5888
37388209,0.299339,-0.256729,-0.04048,16.2,12.75,33.6,0.320933,2.39981,4.42885
37401379,-0.18003,-0.0628506,-0.126766,17.25,13.05,33.3,1.59269,1.44659,6.70891
37424203,-0.189617,0.0553937,-0.0223706,16.8,11.55,33.6,-1.02267,3.12311,13.4221
37436381,-0.104396,0.00426106,0.205596,16.5,12.75,33.9,-1.14003,-1.5879,14.7442
37459203,0.248207,0.187487,0.106526,16.2,12.3,33.6,1.7292,1.66933,9.23086
37472377,-0.459129,-0.190682,0.00532632,15.45,13.05,34.65,2.11001,1.70046,8.03335
37495203,0.0553937,-0.052198,-0.0138484,16.35,13.2,34.2,-1.69328,-0.129331,13.2545
37507376,0.0170442,0.120375,0.0649811,17.25,13.5,35.4,2.56028,1.6837,10.5745
37530203,-0.529436,-0.413323,0.0426106,17.4,13.65,34.2,2.76625,-1.83698,4.12708
37543377,0.616788,0.0245011,0.0170442,16.5,12.3,34.65,0.428709,0.193997,8.23453
37556381,-0.968325,0.162985,-0.0447411,16.8,10.8,33.3,1.80824,0.0263452,10.7613
37579203,-1.23997,-0.18003,-0.0798948,17.25,12.75,34.65,-0.280217,-1.39869,8.03096
37591376,0.795752,0.113983,0.178964,16.8,12.3,35.4,-1.76273,-1.96152,11.2187
37614216,0.26312,0.28336,0.235423,16.65,11.85,34.8,-0.852627,0.512534,11.6714
37627378,-0.00745685,-0.0330232,0.169377,16.65,12.15,35.25,1.03944,-1.47533,7.88486
37650203,-0.15979,-0.175769,0.0511327,16.8,12.75,34.95,-0.167651,0.840652,9.39372
37663376,0.142745,0.279099,0.0500674,15.6,12.9,34.2,-1.7771,2.41897,11.8271
37686209,0.117179,-0.11931,0.140615,16.5,12.75,33.6,2.14833,0.862207,11.4008
37699379,0.361125,-0.383495,0.0426106,15.6,11.4,34.5,1.0586,1.93757,8.52912
37712673,-0.136354,0.535828,0.04048,17.1,12.45,34.8,0.910107,-0.991538,6.06704
37735216,0.692422,0.168312,0.0713727,17.7,11.1,36.3,2.27766,0.519719,12.73
37748378,-0.929976,-0.515588,0.00106526,17.7,12.15,33.45,0.431104,0.696951,14.44
37771203,-0.150202,0.333428,0.173638,18.15,13.2,35.25,-1.25739,-0.421523,9.35061
37783376,1.27619,0.28123,0.247141,16.35,11.4,34.5,1.48252,1.57353,11.1349
37806209,-0.705205,-0.667921,-0.0958738,16.65,11.4,34.5,4.59844,1.67412,11.3672
37819379,-1.61601,-0.34195,-0.0511327,17.1,11.1,35.55,-3.50391,-0.184417,7.51363
37842203,0.0596548,0.525175,0.118244,17.25,10.05,33.9,-3.92065,-3.47996,10.8691
37854381,0.983239,-0.525175,0.1012,17.4,12.15,36.3,3.74342,2.46448,16.7536
37877203,-0.248207,-0.316384,0.149137,16.2,12.3,34.65,2.60099,2.58183,10.8188
37889377,-0.654072,0.634898,0.165116,17.25,12,34.95,2.20342,-0.514929,4.44561
37912246,1.81521,-0.0245011,0.0841559,16.2,11.55,35.4,1.45138,0.249082,9.14943
37925377,0.111853,-0.363255,0.0308927,16.8,11.55,35.7,-0.232317,3.76737,18.0972
37948203,-1.20481,0.346211,0.122505,17.1,11.85,34.5,-0.493374,0.967588,10.5314
37960377,0.376038,0.158724,0.0980043,18.3,9.75,35.4,0.835862,-1.29092,2.23261
37983223,0.742489,-0.353668,-0.0415453,17.7,11.1,34.8,1.08255,0.974773,10.1314
37996378,-0.274838,0.0245011,0.0287621,17.25,10.5,33.9,0.984353,2.40939,12.2534
38009376,-0.426106,0.0575243,0.0553937,17.7,11.85,35.55,1.48731,-0.0622705,4.47196
38032203,0.680704,-0.103331,0.0383495,15.9,11.4,35.25,0.510139,0.747246,7.97348
38045377,-0.284426,-0.0479369,-0.0255663,18.6,13.5,34.35,-1.2023,2.03816,11.8007
38068203,-0.514523,0.113983,-0.0266316,17.55,11.25,33.6,-0.962798,0.62031,10.3924
38081376,0.361125,-0.0245011,0.0213053,17.25,11.25,35.4,0.0886157,0.831072,9.66436
38104222,0.447411,0.0127832,0.0181095,17.4,10.65,34.8,-0.467029,2.08606,10.723
38117379,-0.601874,0.00852211,-0.13955,17.4,9.15,33.45,0.0742456,1.68849,7.68128
38140203,-0.702009,0.0213053,-0.223706,17.55,10.8,34.65,-0.232317,0.371228,8.15789
38152400,-0.15979,-0.0841559,-0.153398,18.15,9.9,35.55,-0.850232,0.900527,11.4391
38175203,0.28123,-0.00852211,-0.0234358,17.7,9.9,34.5,-0.864602,1.21906,12.6007
38188377,-0.0255663,0.0703075,-0.076699,16.8,10.05,34.95,0.323328,0.5772,8.77341
38201376,-0.198139,-0.0170442,-0.153398,16.5,11.25,34.65,1.47054,0.323328,6.84542
38224205,0.02024,-0.128897,-0.13955,15.75,9.75,34.65,0.711321,1.06578,9.94937
38236378,-0.0607201,0.0223706,-0.0894822,17.4,10.65,35.55,-1.14242,1.72681,12.7731
38259203,0.0777643,0.16192,-0.0117179,18.45,11.1,34.5,-0.354463,0.773591,11.8726
38272406,0.287621,-0.0990696,-0.0213053,15.75,10.8,34.65,0.946033,0.996328,9.87752
38295203,0.143811,0.00852211,0.00319579,17.4,10.35,34.2,0.222737,1.03465,9.89668
38308376,0.0660464,0.128897,-0.0170442,17.25,9.3,34.95,0.0143701,1.65256,10.1961
38331234,0.217314,0.0426106,0.0149137,18.15,9.9,34.5,0.368833,1.63101,11.111
38344378,-0.152333,-0.110787,-0.0276969,16.8,10.5,33.9,0.713716,1.51605,10.3877
38367203,-0.0735032,0.0948085,0.00426106,17.25,10.5,33.9,-0.0574805,0.730481,8.81892
38379376,0.396278,0.13955,0.0308927,17.1,9.9,35.25,0.65863,1.3005,10.2416
38402222,-0.13955,-0.104396,0.0319579,17.55,9,35.7,0.826282,1.81542,10.2895
38415379,0.172573,-0.0181095,0.0351537,18.45,10.65,34.2,-0.924478,1.31966,9.5997
38428373,0.0213053,0.165116,0.00745685,18.15,9.15,34.8,0.143701,2.17947,9.82483
38451233,-0.460194,-0.0937433,-0.0756338,18.6,10.8,34.35,0.241897,1.50886,9.19494
38464377,-0.0468716,-0.0671117,-0.0628506,16.8,10.8,34.95,-1.01788,1.152,9.25721
38487203,0.183225,0.109722,-0.0383495,17.85,9,33.6,-0.505349,2.27287,10.8044
38500376,-0.399474,-0.0415453,-0.100135,17.55,9.3,33.9,-0.0143701,1.346,8.39021
38523223,-0.0276969,-0.131028,-0.143811,18.15,10.65,33.45,-0.179626,1.04183,8.67522
38536379,0.0969391,0.0681769,-0.106526,19.2,10.65,33.75,-0.239502,2.23216,11.6618
38559203,-0.273773,0.0330232,-0.0884169,19.2,8.4,34.5,0.443079,1.28852,9.50868
38571424,0.252468,-0.103331,-0.0820254,19.35,9.75,33,0.320933,1.17835,8.79497
38594203,0.142745,0.0287621,-0.0660464,18.6,8.7,34.65,-0.409548,2.33514,11.6858
38606374,-0.369647,0.0798948,-0.0681769,18.45,10.35,35.25,0.63468,1.43941,9.47036
38629209,0.107592,-0.0916127,-0.0639159,19.05,9.75,33.3,0.900527,1.11847,8.44769
38642380,0.247141,0.0490022,-0.0181095,17.1,8.85,33.75,-0.416733,2.1148,11.9372
38655374,-0.269512,0.104396,0.00532632,17.4,8.85,34.5,0.483794,1.89686,10.2679
38678203,-0.164051,-0.109722,-0.0479369,17.85,9.3,33.6,1.02028,1.51365,8.66324
38690403,0.300405,-0.0607201,0.0692422,18.45,8.85,34.2,-0.876577,1.7771,12.9934
38713204,-0.0649811,0.160855,0.0788296,19.95,9.6,33.75,-1.00351,1.84417,10.6391
38725372,0.211988,-0.00213053,0.00639159,18.75,9.15,33.75,0.493374,0.996328,7.97827
38748204,0.0500674,-0.0958738,-0.0468716,20.4,9.3,33,0.455054,2.10283,9.42246
38760378,-0.216249,0.0884169,-0.0245011,19.2,9.15,34.8,0.0670606,1.90644,10.2775
38783203,-0.0276969,-0.0106526,0.00426106,19.05,9.75,33.6,0.514929,1.63819,9.94458
38795372,0.107592,-0.052198,0.015979,17.7,9.9,33.45,0.0263452,1.60706,10.2919
38818217,0.0308927,0.0777643,0.0234358,19.5,10.35,34.8,-0.119751,1.80824,9.90865
38831377,-0.0607201,0.0287621,0.00213053,18.75,8.85,34.8,0.366438,1.38432,9.16859
38854203,-0.0298274,-0.0511327,-0.00958738,18.45,9.9,33.75,0.119751,1.5376,9.86794
38866374,-0.0287621,0.0127832,0.0127832,18.45,9.6,33.15,-0.227527,1.56395,10.3996
38889209,0.00532632,0.0319579,0.0298274,19.05,9.75,33.3,0.275427,1.43941,9.82004
38902378,0.04048,-0.0191748,0.0372843,18.3,10.05,34.35,0.459844,1.47773,9.70268
38925203,-0.0117179,0.00319579,0.0447411,19.05,8.7,33.3,0.289797,1.43941,9.97811
38938381,-0.15979,0.0426106,0.036219,17.85,7.95,34.95,0.196392,0.974773,10.0284
38951376,-0.0660464,0.00532632,0.052198,18.15,10.65,34.2,0.227527,0.63468,9.80327
38974203,0.0798948,0.0138484,0.0788296,17.7,9.15,33.45,0.0191602,0.744851,10.2847
38986374,0.0234358,0.0383495,0.0841559,17.85,8.7,33.6,0.177231,0.716111,10.2344
39009209,-0.02024,0.0149137,0.0798948,17.7,9.9,33.45,0.287402,0.56762,9.63562
39022376,0.0692422,0.0106526,0.0809601,17.7,9.9,33.75,0.239502,0.859812,9.69071
39045203,-0.00426106,0.0181095,0.0756338,19.65,7.95,34.65,0.213157,0.955613,10.2583
39058382,-0.0639159,0.0127832,0.0671117,19.05,9,34.65,0.155676,0.730481,9.79609
39081203,0.0276969,0.0117179,0.076699,18.45,8.85,34.5,0.0910107,0.747246,9.78651
39093376,-0.00958738,0.00639159,0.0820254,18.3,9.3,33,0.167651,0.910107,10.1505
39116219,-0.0575243,0.0117179,0.0798948,19.05,9.3,33.9,0.246687,0.565225,9.77214
39129376,0.0916127,0.0117179,0.0937433,20.7,10.05,33.9,0.196392,0.603545,9.95176
39152203,0.0713727,0.0106526,0.0990696,18.6,8.7,34.35,0.189207,0.651445,10.0955
39165373,0.181095,0.0213053,0.123571,18.45,10.65,33.45,-0.122146,1.48731,10.2919
39178381,0.076699,0.0234358,0.111853,17.85,9,33.3,-0.409548,1.11847,10.1146
39201203,0.314253,-0.015979,0.127832,19.2,8.4,34.2,-0.364043,0.58199,10.8954
39213377,0.334493,-0.0372843,0.152333,18.3,9,32.55,0.105381,1.26218,11.3385
39236219,-0.0639159,0.0181095,0.0873517,18.75,9.6,34.8,0.64905,0.752036,9.35301
39249374,-0.157659,0.0213053,0.0319579,18.3,9.3,33,1.33642,0.277822,7.82499
39272203,-0.0340885,-0.0330232,0.0170442,19.2,9.15,33.15,0.64905,0.490979,9.65957
39285374,-0.0830906,-0.00958738,0.0191748,18.3,9,33.6,-0.392783,0.876577,11.3792
39308203,-0.00426106,0.0298274,0.0308927,18.3,10.8,33,-0.550855,0.471819,10.4451
39320373,0.162985,0.0287621,0.0298274,19.95,11.1,33.45,-0.110171,0.265847,9.86554
39343203,0.04048,-0.0213053,0.00213053,18.3,8.7,33.6,0.512534,0.294587,9.83441
39356407,-0.0820254,-0.0170442,0.0117179,18.6,9,34.35,0.462239,0.0574805,9.60209
39379203,-0.015979,0.00426106,0.0266316,17.4,8.85,32.1,0.414338,0.0455054,9.8847
39392376,0.0127832,0.015979,0.0394148,18.45,9.9,33.45,0.253872,0.0958008,10.4667
39405373,-0.00852211,0.0308927,0.0490022,18.45,10.65,33.45,0.150886,0.0622705,10.2823
39428209,0.015979,0.0308927,0.0447411,18.6,9.75,33.9,0.220342,-0.0862207,9.87273
39441377,0.00319579,0.00532632,0.0415453,17.55,8.25,32.25,0.294587,-0.0622705,9.87033
39464203,-0.0447411,0.00958738,0.0372843,19.2,9.6,33.45,0.239502,0.00239502,10.0188
39476381,0.00213053,0.0117179,0.0351537,17.4,9.6,33.15,0.258662,-0.0359253,10.0619
39499203,0.0149137,0.0127832,0.0458064,18.6,10.5,33.9,0.402363,0.241897,10.3134
39512377,-0.015979,0.02024,0.052198,17.85,9.75,33.3,0.356858,-0.150886,10.0835
39535219,0.115049,0.0575243,0.0692422,19.35,10.5,33.3,0.222737,-0.119751,9.86075
39548374,0.0852212,0.0479369,0.0649811,18.75,10.65,33.45,0.0862207,0.0550855,10.2368
39571203,-0.0916127,0.0191748,0.0266316,17.85,9,33.3,0.191602,0.134121,9.82004
39584374,0.0276969,0.0458064,0.0234358,20.25,8.85,33.15,-0.318538,-0.0622705,10.1865
39597381,-0.00745685,-0.0138484,0.00958738,17.7,8.85,33.15,-0.131726,0.0502954,10.1577
39620203,0.00319579,-0.0223706,0.015979,19.35,10.05,32.25,0.366438,0.0790356,9.70268
39632376,0.215183,-0.00426106,0.0213053,20.4,9.3,33.3,0.455054,0.421523,10.0787
39655219,-0.131028,0.00639159,0.00958738,18.15,9.9,32.7,0.102986,0.883762,11.0439
39668376,-0.274838,0.0298274,-0.00213053,17.85,9,32.55,0.464634,0.258662,9.13267
39691203,0.188552,-0.0223706,0.0308927,19.2,9.6,33.45,0.191602,-0.122146,10.2032
39703373,0.00319579,-0.0458064,0.0415453,18.75,8.1,32.4,0.64905,0.804727,10.3709
39726209,-0.0245011,0.0223706,0.0255663,18.15,8.1,33.45,-0.196392,0.354463,10.1937
39739377,-0.0735032,0.04048,0.0149137,19.65,8.7,34.35,-0.0143701,0.155676,9.58293
39762203,0.0735032,-0.0106526,0.0106526,19.2,9.9,33.15,0.821492,0.716111,9.31469
39775381,-0.22264,-0.0980043,-0.015979,18.3,8.7,33.3,0.289797,0.742456,10.8499
39798203,-0.339819,0.0532632,-0.0106526,19.5,8.4,32.4,-0.467029,0.150886,9.84159
39810377,0.125701,0.170442,0.0436758,18.6,9.75,32.55,0.0981958,0.131726,9.29553
39833203,0.257794,-0.110787,0.0490022,19.2,9.15,33.15,0.440684,0.61073,10.5577
39845376,0.162985,-0.0500674,0.0255663,19.95,9.6,32.7,-0.814307,0.598755,11.4439
39868203,-0.0713727,0.15979,0.0266316,20.25,9.15,32.4,0.814307,0.299377,7.97587
39881377,0.302535,0.0543285,0.0106526,18.15,8.1,32.4,1.75315,0.162861,8.41416
39894419,-0.282295,-0.144876,-0.0596548,20.4,8.25,32.25,0.708926,0.991538,10.8954
39917203,-0.309992,-0.0138484,-0.0330232,20.55,8.1,32.1,-1.35079,0.124541,10.3254
39929376,0.593352,0.0905475,0.0447411,19.2,8.4,33.45,-0.474214,0.366438,10.9289
39952260,-0.0117179,0.0479369,-0.00213053,19.35,9,32.25,1.42743,1.20948,10.1314
39965383,-0.496413,-0.13955,-0.0852212,20.1,8.7,32.55,1.02746,-0.546064,7.17354
39988203,0.348341,0.04048,-0.0276969,20.25,9.15,32.1,-0.6251,0.637075,9.23086
40001373,-0.314253,0.0170442,-0.0383495,18.75,9.9,33.15,-0.383203,1.71004,13.5467
40024209,-0.810666,-0.0170442,-0.0511327,19.65,9.3,31.5,-0.641865,-0.100591,8.9722
40037377,0.754207,0.0372843,0.0479369,19.5,8.1,32.7,-0.498164,-0.301772,9.26439
40060203,0.52198,0.0372843,0.0681769,20.1,9.3,33,1.02507,2.4046,13.0006
40072405,-0.716923,-0.0223706,-0.0181095,21.6,8.85,32.7,0.986748,0.833467,7.59267
40095203,-0.0809601,-0.207727,-0.109722,21.3,6.9,31.65,-0.474214,-0.512534,7.15917
40107377,0.356864,0.0980043,-0.0756338,20.4,10.8,33,-0.395178,1.16877,11.1373
40120672,-0.383495,0.0745685,-0.0468716,18.75,9.9,31.35,1.63101,0.948428,11.2547
40144223,-0.456998,-0.304666,-0.076699,19.95,8.1,30.6,-0.00718506,-0.244292,7.87289
40157376,0.687096,0.165116,0.0234358,19.65,8.25,30.9,-0.881367,0.687371,9.36977
40180203,0.126766,0.0426106,-0.0276969,19.65,7.5,30.9,1.43941,2.02379,12.3085
40192405,-0.752077,-0.0745685,-0.0149137,20.55,8.85,31.35,0.404758,0.632285,9.30032
40215203,0.596548,0.124636,0.056459,21.3,9.9,31.35,-1.01309,0.112566,7.4825
40227377,0.442085,-0.0703075,0.00532632,19.95,9.15,31.05,-0.105381,2.2585,12.7779
40250235,-0.956607,0.0276969,-0.0894822,20.55,9.15,31.05,-0.201182,0.802332,11.3912
40263376,-0.0330232,-0.0649811,-0.0340885,20.4,9,31.2,-0.273032,-0.280217,9.89189
40286203,0.777643,0.0916127,0.1012,21.3,8.4,30.6,-0.184417,1.0083,12.9551
40299376,0.201335,0.0990696,0.106526,21,9.6,31.65,0.775986,0.752036,10.8331
40312402,0.348341,-0.0106526,0.072438,21.45,8.7,30.9,1.91602,0.376018,7.916
40335203,-0.257794,-0.0671117,-0.0340885,21,9.15,32.1,-0.464634,1.77231,9.76735
40347374,-0.679639,0.147006,-0.092678,20.7,9.3,31.95,-1.88249,0.411943,10.0619
40370234,0.20027,0.0447411,-0.0117179,22.05,7.35,30.3,-0.608335,0.60594,12.6701
40383377,0.118244,-0.13955,0.0692422,20.7,8.25,31.5,0.232317,1.42504,12.1887
40406203,-0.0500674,0.0468716,0.00852211,20.7,9.3,29.85,-0.380808,0.890947,8.90514
40418374,0.0713727,0.15979,-0.0181095,20.25,8.4,31.05,0.65863,0.464634,8.9698
40441216,-0.185356,0.015979,0.0276969,22.2,9,30.15,0.835862,1.31008,11.3672
40454378,0.124636,-0.0873517,0.0543285,21.9,10.05,30.45,-1.20948,1.67172,11.3792
40477203,0.296144,0.122505,0.0873517,21,8.4,30.3,-0.0910107,0.819097,10.7397
40490418,-0.0777643,0.0735032,0.0351537,21.45,8.25,30.45,1.9711,0.665815,7.86091
40513204,0.137419,-0.0308927,0.0735032,21.6,8.85,30.3,1.25739,0.0766406,7.83457
40525376,0.254598,-0.00532632,0.0756338,21.3,9.9,31.35,-0.110171,1.6334,11.748
40548213,-0.442085,0.0500674,0.0181095,23.1,8.85,30.3,-0.65863,1.31487,10.7828
40560374,0.255663,0.0948085,0.0490022,21.15,8.7,28.8,-0.112566,0.251477,10.3589
40583203,0.116114,-0.0553937,0.0490022,21.45,7.2,29.85,0.136516,1.43462,10.9481
40595376,-0.427171,-0.0340885,-0.04048,21.6,9.15,30.6,0.155676,0.349673,8.36147
40618217,0.036219,0.158724,0.0191748,21.45,9,30.15,1.14003,0.704136,8.71354
40631376,-0.592287,-0.177899,-0.0585895,21.45,8.25,31.2,0.687371,1.42743,10.1913
40644374,-0.092678,-0.0777643,0.0138484,21.6,10.35,30.3,-1.74836,0.222737,10.3062
40667203,0.604005,0.351537,0.142745,22.95,10.05,30.45,-0.661025,2.03098,12.9072
40679381,-0.339819,-0.0127832,0.0660464,21.3,9.6,30.3,1.78668,0.929268,8.05251
40702203,0.142745,-0.290817,-0.00319579,22.2,9,29.4,0.881367,0.0455054,8.2034
40714374,0.0500674,0.208792,0.0181095,23.1,8.85,30,0.689766,1.22146,9.12069
40737217,-0.145941,0.0798948,0.0660464,21.6,9.6,29.55,1.47533,0.723296,8.40698
40750377,-0.352602,-0.299339,-0.0276969,21.3,9.15,29.25,0.752036,1.39151,8.89795
40773203,-0.312122,-0.0276969,-0.00745685,22.05,9.15,30,-1.66454,0.696951,11.5852
40785374,-0.0213053,0.194943,0.102265,22.2,9.3,29.85,-0.177231,1.04902,10.2871
